Time,Count,Quat W,Quat X,Quat Y,Quat Z,Accel X (g),Accel Y (g),Accel Z (g),Gyro X (dps),Gyro Y (dps),Gyro Z (dps),Yaw,Pitch,Roll,X,Y,Z,Grav X,Grav Y,Grav Z,Temp
0.05400000140070915,6.0,0.9998999834060669,0.003800000064074993,-0.00019999999494757503,-9.999999747378752e-05,0.002400000113993883,-0.0006000000284984708,3.856600046157837,-0.061000000685453415,-0.061000000685453415,0.0,9.999999747378752e-05,0.00039999998989515007,0.007600000128149986,9.999999747378752e-05,0.00039999998989515007,-0.007600000128149986,0.00039999998989515007,0.007600000128149986,0.9998999834060669,34.835899353027344
0.06599999964237213,7.0,0.9998999834060669,0.003700000001117587,-0.00019999999494757503,0.0,0.004800000227987766,-0.003000000026077032,4.239200115203857,0.0,-0.061000000685453415,0.0,-0.0,0.0005000000237487257,0.007400000002235174,-0.0,0.0005000000237487257,-0.007400000002235174,0.0005000000237487257,0.007400000002235174,0.9998999834060669,34.841800689697266
0.07000000029802322,8.0,0.9998999834060669,0.003700000001117587,-0.00019999999494757503,0.0,0.004800000227987766,-0.003000000026077032,4.239200115203857,0.0,-0.061000000685453415,0.0,-0.0,0.0005000000237487257,0.007400000002235174,-0.0,0.0005000000237487257,-0.007400000002235174,0.0005000000237487257,0.007400000002235174,0.9998999834060669,34.841800689697266
0.08299999684095383,9.0,0.9998999834060669,0.003700000001117587,-0.0003000000142492354,0.0,0.0006000000284984708,-0.006000000052154064,4.485300064086914,0.0,-0.061000000685453415,0.0,-0.0,0.0006000000284984708,0.007300000172108412,-0.0,0.0006000000284984708,-0.007300000172108412,0.0006000000284984708,0.007300000172108412,0.9998999834060669,34.835899353027344
0.08500000089406967,10.0,0.9998999834060669,0.003700000001117587,-0.0003000000142492354,0.0,0.0006000000284984708,-0.006000000052154064,4.485300064086914,0.0,-0.061000000685453415,0.0,-0.0,0.0006000000284984708,0.007300000172108412,-0.0,0.0006000000284984708,-0.007300000172108412,0.0006000000284984708,0.007300000172108412,0.9998999834060669,34.835899353027344
0.10199999809265137,11.0,0.9998999834060669,0.003599999938160181,-0.00039999998989515007,0.0,-0.0006000000284984708,-0.004800000227987766,4.633200168609619,-0.061000000685453415,-0.061000000685453415,0.0,-0.0,0.000699999975040555,0.007199999876320362,-0.0,0.000699999975040555,-0.007199999876320362,0.000699999975040555,0.007199999876320362,0.9998999834060669,34.812400817871094
0.10999999940395355,12.0,0.9998999834060669,0.003599999938160181,-0.00039999998989515007,0.0,0.0,-0.00419999985024333,4.732600212097168,-0.061000000685453415,-0.061000000685453415,0.0,-0.0,0.0007999999797903001,0.007199999876320362,-0.0,0.0007999999797903001,-0.007199999876320362,0.0007999999797903001,0.007199999876320362,0.9998999834060669,34.824100494384766
0.11299999803304672,13.0,0.9998999834060669,0.003599999938160181,-0.00039999998989515007,0.0,0.0,-0.00419999985024333,4.732600212097168,-0.061000000685453415,-0.061000000685453415,0.0,-0.0,0.0007999999797903001,0.007199999876320362,-0.0,0.0007999999797903001,-0.007199999876320362,0.0007999999797903001,0.007199999876320362,0.9998999834060669,34.824100494384766
0.13199999928474426,14.0,0.9998999834060669,0.0035000001080334187,-0.0005000000237487257,0.0,0.003000000026077032,-0.003000000026077032,4.7941999435424805,0.0,-0.061000000685453415,0.0,-0.0,0.0010000000474974513,0.0071000000461936,-0.0,0.0010000000474974513,-0.0071000000461936,0.0010000000474974513,0.0071000000461936,0.9998999834060669,34.83000183105469
0.14000000059604645,15.0,0.9998999834060669,0.0035000001080334187,-0.0006000000284984708,0.0,-0.0006000000284984708,-0.003000000026077032,4.829599857330322,-0.061000000685453415,-0.061000000685453415,0.0,-0.0,0.0012000000569969416,0.007000000216066837,-0.0,0.0012000000569969416,-0.007000000216066837,0.0012000000569969416,0.007000000216066837,0.9998999834060669,34.83000183105469
0.14399999380111694,16.0,0.9998999834060669,0.0035000001080334187,-0.0006000000284984708,0.0,-0.0006000000284984708,-0.003000000026077032,4.829599857330322,-0.061000000685453415,-0.061000000685453415,0.0,-0.0,0.0012000000569969416,0.007000000216066837,-0.0,0.0012000000569969416,-0.007000000216066837,0.0012000000569969416,0.007000000216066837,0.9998999834060669,34.83000183105469
0.15600000321865082,17.0,0.9998999834060669,0.0035000001080334187,-0.0006000000284984708,0.0,-0.0006000000284984708,-0.003000000026077032,4.829599857330322,-0.061000000685453415,-0.061000000685453415,0.0,-0.0,0.0012000000569969416,0.007000000216066837,-0.0,0.0012000000569969416,-0.007000000216066837,0.0012000000569969416,0.007000000216066837,0.9998999834060669,34.83000183105469
0.164000004529953,18.0,0.9998999834060669,0.0034000000450760126,-0.0006000000284984708,0.0,0.0,-0.006000000052154064,4.85830020904541,-0.061000000685453415,-0.061000000685453415,0.0,-0.0,0.0012000000569969416,0.006800000090152025,-0.0,0.0012000000569969416,-0.006800000090152025,0.0012000000569969416,0.006800000090152025,0.9998999834060669,34.812400817871094
0.17299999296665192,19.0,0.9998999834060669,0.0034000000450760126,-0.000699999975040555,0.0,-0.003000000026077032,-0.005400000140070915,4.869699954986572,-0.061000000685453415,-0.061000000685453415,0.0,-0.0,0.0013000000035390258,0.006800000090152025,-0.0,0.0013000000035390258,-0.006800000090152025,0.0013000000035390258,0.006800000090152025,0.9998999834060669,34.812400817871094
0.17499999701976776,20.0,0.9998999834060669,0.0034000000450760126,-0.000699999975040555,0.0,-0.003000000026077032,-0.005400000140070915,4.869699954986572,-0.061000000685453415,-0.061000000685453415,0.0,-0.0,0.0013000000035390258,0.006800000090152025,-0.0,0.0013000000035390258,-0.006800000090152025,0.0013000000035390258,0.006800000090152025,0.9998999834060669,34.812400817871094
0.18799999356269836,21.0,0.9998999834060669,0.0034000000450760126,-0.000699999975040555,0.0,-0.00419999985024333,-0.005400000140070915,4.879799842834473,0.0,-0.061000000685453415,-0.061000000685453415,-0.0,0.001500000013038516,0.0066999997943639755,-0.0,0.001500000013038516,-0.0066999997943639755,0.001500000013038516,0.0066999997943639755,0.9998999834060669,34.841800689697266
0.19200000166893005,22.0,0.9998999834060669,0.0034000000450760126,-0.000699999975040555,0.0,-0.00419999985024333,-0.005400000140070915,4.879799842834473,0.0,-0.061000000685453415,-0.061000000685453415,-0.0,0.001500000013038516,0.0066999997943639755,-0.0,0.001500000013038516,-0.0066999997943639755,0.001500000013038516,0.0066999997943639755,0.9998999834060669,34.841800689697266
0.21199999749660492,23.0,0.9998999834060669,0.0032999999821186066,-0.0007999999797903001,0.0,-0.005400000140070915,-0.006000000052154064,4.889999866485596,0.0,-0.061000000685453415,0.0,-0.0,0.0015999999595806003,0.006599999964237213,-0.0,0.0015999999595806003,-0.006599999964237213,0.0015999999595806003,0.006599999964237213,0.9998999834060669,34.812400817871094
0.22100000083446503,24.0,0.9998999834060669,0.0032999999821186066,-0.0007999999797903001,0.0,-0.007199999876320362,-0.00419999985024333,4.896599769592285,-0.061000000685453415,-0.061000000685453415,0.0,-0.0,0.0017000000225380063,0.006599999964237213,-0.0,0.0017000000225380063,-0.006599999964237213,0.0017000000225380063,0.006599999964237213,0.9998999834060669,34.83000183105469
0.22499999403953552,25.0,0.9998999834060669,0.0032999999821186066,-0.0007999999797903001,0.0,-0.007199999876320362,-0.00419999985024333,4.896599769592285,-0.061000000685453415,-0.061000000685453415,0.0,-0.0,0.0017000000225380063,0.006599999964237213,-0.0,0.0017000000225380063,-0.006599999964237213,0.0017000000225380063,0.006599999964237213,0.9998999834060669,34.83000183105469
0.24199999868869781,26.0,0.9998999834060669,0.0031999999191612005,-0.0008999999845400453,0.0,-0.006000000052154064,-0.004800000227987766,4.901400089263916,-0.061000000685453415,-0.061000000685453415,0.0,-0.0,0.0017999999690800905,0.006500000134110451,-0.0,0.0017999999690800905,-0.006500000134110451,0.0017999999690800905,0.006500000134110451,0.9998999834060669,34.83000183105469
0.25099998712539673,27.0,0.9998999834060669,0.0031999999191612005,-0.0010000000474974513,0.0,-0.003000000026077032,-0.0012000000569969416,4.902599811553955,-0.061000000685453415,-0.061000000685453415,-0.061000000685453415,-0.0,0.0020000000949949026,0.006399999838322401,-0.0,0.0020000000949949026,-0.006399999838322401,0.0020000000949949026,0.006399999838322401,0.9998999834060669,34.824100494384766
0.2549999952316284,28.0,0.9998999834060669,0.0031999999191612005,-0.0010000000474974513,0.0,-0.003000000026077032,-0.0012000000569969416,4.902599811553955,-0.061000000685453415,-0.061000000685453415,-0.061000000685453415,-0.0,0.0020000000949949026,0.006399999838322401,-0.0,0.0020000000949949026,-0.006399999838322401,0.0020000000949949026,0.006399999838322401,0.9998999834060669,34.824100494384766
0.2680000066757202,29.0,0.9998999834060669,0.0031999999191612005,-0.0010000000474974513,0.0,-0.003599999938160181,-0.003599999938160181,4.903200149536133,-0.061000000685453415,-0.061000000685453415,0.0,-0.0,0.002099999925121665,0.006399999838322401,-0.0,0.002099999925121665,-0.006399999838322401,0.002099999925121665,0.006399999838322401,0.9998999834060669,34.835899353027344
0.2759999930858612,30.0,0.9998999834060669,0.003100000089034438,-0.0010999999940395355,0.0,-0.003000000026077032,0.0,4.899600028991699,0.0,-0.061000000685453415,0.0,-0.0,0.002199999988079071,0.006200000178068876,-0.0,0.002199999988079071,-0.006200000178068876,0.002199999988079071,0.006200000178068876,0.9998999834060669,34.83000183105469
0.2800000011920929,31.0,0.9998999834060669,0.003100000089034438,-0.0010999999940395355,0.0,-0.003000000026077032,0.0,4.899600028991699,0.0,-0.061000000685453415,0.0,-0.0,0.002199999988079071,0.006200000178068876,-0.0,0.002199999988079071,-0.006200000178068876,0.002199999988079071,0.006200000178068876,0.9998999834060669,34.83000183105469
0.3019999861717224,32.0,0.9998999834060669,0.003100000089034438,-0.0012000000569969416,0.0,-0.003000000026077032,-0.0006000000284984708,4.9008002281188965,0.0,-0.061000000685453415,0.0,-0.0,0.002300000051036477,0.006200000178068876,-0.0,0.002300000051036477,-0.006200000178068876,0.002300000051036477,0.006200000178068876,0.9998999834060669,34.83000183105469
0.3109999895095825,33.0,0.9998999834060669,0.003000000026077032,-0.0012000000569969416,0.0,-0.0006000000284984708,-0.0006000000284984708,4.901400089263916,-0.061000000685453415,-0.061000000685453415,-0.061000000685453415,-0.0,0.002400000113993883,0.006099999882280827,-0.0,0.002400000113993883,-0.006099999882280827,0.002400000113993883,0.006099999882280827,0.9998999834060669,34.841800689697266
0.3140000104904175,34.0,0.9998999834060669,0.003000000026077032,-0.0012000000569969416,0.0,-0.0006000000284984708,-0.0006000000284984708,4.901400089263916,-0.061000000685453415,-0.061000000685453415,-0.061000000685453415,-0.0,0.002400000113993883,0.006099999882280827,-0.0,0.002400000113993883,-0.006099999882280827,0.002400000113993883,0.006099999882280827,0.9998999834060669,34.841800689697266
0.32600000500679016,35.0,0.9998999834060669,0.003000000026077032,-0.0013000000035390258,0.0,0.0,-0.0006000000284984708,4.901400089263916,-0.061000000685453415,-0.061000000685453415,0.0,-0.0,0.0026000000070780516,0.006099999882280827,-0.0,0.0026000000070780516,-0.006099999882280827,0.0026000000070780516,0.006099999882280827,0.9998999834060669,34.85350036621094
0.33000001311302185,36.0,0.9998999834060669,0.003000000026077032,-0.0013000000035390258,0.0,0.0,-0.0006000000284984708,4.901400089263916,-0.061000000685453415,-0.061000000685453415,0.0,-0.0,0.0026000000070780516,0.006099999882280827,-0.0,0.0026000000070780516,-0.006099999882280827,0.0026000000070780516,0.006099999882280827,0.9998999834060669,34.85350036621094
0.35199999809265137,37.0,0.9998999834060669,0.003000000026077032,-0.0013000000035390258,0.0,0.0012000000569969416,-0.0006000000284984708,4.89900016784668,0.0,-0.061000000685453415,-0.061000000685453415,-0.0,0.0027000000700354576,0.006000000052154064,-0.0,0.0027000000700354576,-0.006000000052154064,0.0027000000700354576,0.006000000052154064,0.9998999834060669,34.824100494384766
0.3610000014305115,38.0,0.9998999834060669,0.003000000026077032,-0.00139999995008111,0.0,0.003000000026077032,0.0012000000569969416,4.900199890136719,0.0,-0.061000000685453415,0.0,-0.0,0.00279999990016222,0.006000000052154064,-0.0,0.00279999990016222,-0.006000000052154064,0.00279999990016222,0.006000000052154064,0.9998999834060669,34.847599029541016
0.3700000047683716,39.0,0.9998999834060669,0.002899999963119626,-0.001500000013038516,0.0,-0.0006000000284984708,0.0017999999690800905,4.895999908447266,-0.061000000685453415,-0.061000000685453415,-0.061000000685453415,-0.0,0.002899999963119626,0.005900000222027302,-0.0,0.002899999963119626,-0.005900000222027302,0.002899999963119626,0.005900000222027302,0.9998999834060669,34.818199157714844
0.37299999594688416,40.0,0.9998999834060669,0.002899999963119626,-0.001500000013038516,0.0,-0.0006000000284984708,0.0017999999690800905,4.895999908447266,-0.061000000685453415,-0.061000000685453415,-0.061000000685453415,-0.0,0.002899999963119626,0.005900000222027302,-0.0,0.002899999963119626,-0.005900000222027302,0.002899999963119626,0.005900000222027302,0.9998999834060669,34.818199157714844
0.3869999945163727,41.0,0.9998999834060669,0.002899999963119626,-0.001500000013038516,0.0,-0.0012000000569969416,-0.0017999999690800905,4.900199890136719,-0.061000000685453415,-0.061000000685453415,-0.061000000685453415,-0.0,0.003000000026077032,0.005900000222027302,-0.0,0.003000000026077032,-0.005900000222027302,0.003000000026077032,0.005900000222027302,0.9998999834060669,34.83000183105469
0.3959999978542328,42.0,0.9998999834060669,0.002899999963119626,-0.001500000013038516,0.0,-0.0017999999690800905,-0.004800000227987766,4.89900016784668,0.0,-0.061000000685453415,0.0,-0.0,0.003000000026077032,0.00570000009611249,-0.0,0.003000000026077032,-0.00570000009611249,0.003000000026077032,0.00570000009611249,0.9998999834060669,34.835899353027344
0.4000000059604645,43.0,0.9998999834060669,0.002899999963119626,-0.001500000013038516,0.0,-0.0017999999690800905,-0.004800000227987766,4.89900016784668,0.0,-0.061000000685453415,0.0,-0.0,0.003000000026077032,0.00570000009611249,-0.0,0.003000000026077032,-0.00570000009611249,0.003000000026077032,0.00570000009611249,0.9998999834060669,34.835899353027344
0.421999990940094,44.0,0.9998999834060669,0.00279999990016222,-0.0015999999595806003,0.0,-0.0017999999690800905,-0.003000000026077032,4.902599811553955,0.0,-0.061000000685453415,0.0,-0.0,0.0031999999191612005,0.00559999980032444,-0.0,0.0031999999191612005,-0.00559999980032444,0.0031999999191612005,0.00559999980032444,0.9998999834060669,34.83000183105469
0.4300000071525574,45.0,0.9998999834060669,0.00279999990016222,-0.0015999999595806003,0.0,0.0017999999690800905,-0.005400000140070915,4.905600070953369,-0.061000000685453415,-0.061000000685453415,0.0,-0.0,0.0032999999821186066,0.00559999980032444,-0.0,0.0032999999821186066,-0.00559999980032444,0.0032999999821186066,0.00559999980032444,0.9998999834060669,34.818199157714844
0.4339999854564667,46.0,0.9998999834060669,0.00279999990016222,-0.0015999999595806003,0.0,0.0017999999690800905,-0.005400000140070915,4.905600070953369,-0.061000000685453415,-0.061000000685453415,0.0,-0.0,0.0032999999821186066,0.00559999980032444,-0.0,0.0032999999821186066,-0.00559999980032444,0.0032999999821186066,0.00559999980032444,0.9998999834060669,34.818199157714844
0.4449999928474426,47.0,0.9998999834060669,0.00279999990016222,-0.0017000000225380063,0.0,0.0012000000569969416,-0.00839999970048666,4.900199890136719,-0.061000000685453415,-0.061000000685453415,0.0,-0.0,0.0034000000450760126,0.005499999970197678,-0.0,0.0034000000450760126,-0.005499999970197678,0.0034000000450760126,0.005499999970197678,0.9998999834060669,34.835899353027344
0.4490000009536743,48.0,0.9998999834060669,0.00279999990016222,-0.0017000000225380063,0.0,0.0012000000569969416,-0.00839999970048666,4.900199890136719,-0.061000000685453415,-0.061000000685453415,0.0,-0.0,0.0034000000450760126,0.005499999970197678,-0.0,0.0034000000450760126,-0.005499999970197678,0.0034000000450760126,0.005499999970197678,0.9998999834060669,34.835899353027344
0.47200000286102295,49.0,0.9998999834060669,0.00279999990016222,-0.0017999999690800905,0.0,-0.0012000000569969416,-0.007799999788403511,4.89900016784668,0.0,-0.061000000685453415,-0.061000000685453415,-0.0,0.0035000001080334187,0.005499999970197678,-0.0,0.0035000001080334187,-0.005499999970197678,0.0035000001080334187,0.005499999970197678,0.9998999834060669,34.818199157714844
0.48100000619888306,50.0,0.9998999834060669,0.0027000000700354576,-0.0017999999690800905,0.0,0.0006000000284984708,-0.007799999788403511,4.898399829864502,0.0,-0.061000000685453415,0.0,-0.0,0.003700000001117587,0.005400000140070915,-0.0,0.003700000001117587,-0.005400000140070915,0.003700000001117587,0.005400000140070915,0.9998999834060669,34.847599029541016
0.48899999260902405,51.0,0.9998999834060669,0.0026000000070780516,-0.0019000000320374966,0.0,0.0006000000284984708,-0.00839999970048666,4.89900016784668,-0.061000000685453415,-0.061000000685453415,-0.061000000685453415,-0.0,0.003800000064074993,0.005200000014156103,-0.0,0.003800000064074993,-0.005200000014156103,0.003800000064074993,0.005200000014156103,0.9998999834060669,34.835899353027344
0.492000013589859,52.0,0.9998999834060669,0.0026000000070780516,-0.0019000000320374966,0.0,0.0006000000284984708,-0.00839999970048666,4.89900016784668,-0.061000000685453415,-0.061000000685453415,-0.061000000685453415,-0.0,0.003800000064074993,0.005200000014156103,-0.0,0.003800000064074993,-0.005200000014156103,0.003800000064074993,0.005200000014156103,0.9998999834060669,34.835899353027344
0.5120000243186951,53.0,0.9998999834060669,0.0026000000070780516,-0.0019000000320374966,0.0,-0.002400000113993883,-0.010200000368058681,4.904399871826172,-0.061000000685453415,-0.061000000685453415,0.0,-0.0,0.003800000064074993,0.005200000014156103,-0.0,0.003800000064074993,-0.005200000014156103,0.003800000064074993,0.005200000014156103,0.9998999834060669,34.824100494384766
0.5210000276565552,54.0,0.9998999834060669,0.0026000000070780516,-0.0020000000949949026,0.0,-0.002400000113993883,-0.010200000368058681,4.901400089263916,-0.061000000685453415,-0.061000000685453415,0.0,-0.0,0.0038999998942017555,0.005100000184029341,-0.0,0.0038999998942017555,-0.005100000184029341,0.0038999998942017555,0.005100000184029341,0.9998999834060669,34.824100494384766
0.5239999890327454,55.0,0.9998999834060669,0.0026000000070780516,-0.0020000000949949026,0.0,-0.002400000113993883,-0.010200000368058681,4.901400089263916,-0.061000000685453415,-0.061000000685453415,0.0,-0.0,0.0038999998942017555,0.005100000184029341,-0.0,0.0038999998942017555,-0.005100000184029341,0.0038999998942017555,0.005100000184029341,0.9998999834060669,34.824100494384766
0.5419999957084656,56.0,0.9998999834060669,0.0024999999441206455,-0.0020000000949949026,0.0,-0.0017999999690800905,-0.00839999970048666,4.902599811553955,-0.061000000685453415,-0.061000000685453415,0.0,-0.0,0.004000000189989805,0.004999999888241291,-0.0,0.004000000189989805,-0.004999999888241291,0.004000000189989805,0.004999999888241291,0.9998999834060669,34.824100494384766
0.550000011920929,57.0,0.9998999834060669,0.0024999999441206455,-0.002099999925121665,0.0,-0.003000000026077032,-0.004800000227987766,4.9008002281188965,-0.061000000685453415,-0.061000000685453415,-0.061000000685453415,-0.0,0.00419999985024333,0.004999999888241291,-0.0,0.00419999985024333,-0.004999999888241291,0.00419999985024333,0.004999999888241291,0.9998999834060669,34.841800689697266
0.5540000200271606,58.0,0.9998999834060669,0.0024999999441206455,-0.002099999925121665,0.0,-0.003000000026077032,-0.004800000227987766,4.9008002281188965,-0.061000000685453415,-0.061000000685453415,-0.061000000685453415,-0.0,0.00419999985024333,0.004999999888241291,-0.0,0.00419999985024333,-0.004999999888241291,0.00419999985024333,0.004999999888241291,0.9998999834060669,34.841800689697266
0.5669999718666077,59.0,0.9998999834060669,0.002400000113993883,-0.002099999925121665,0.0,-0.0017999999690800905,-0.004800000227987766,4.9019999504089355,0.0,-0.061000000685453415,0.0,-0.0,0.00419999985024333,0.004900000058114529,-0.0,0.00419999985024333,-0.004900000058114529,0.00419999985024333,0.004900000058114529,0.9998999834060669,34.824100494384766
0.5709999799728394,60.0,0.9998999834060669,0.002400000113993883,-0.002099999925121665,0.0,-0.0017999999690800905,-0.004800000227987766,4.9019999504089355,0.0,-0.061000000685453415,0.0,-0.0,0.00419999985024333,0.004900000058114529,-0.0,0.00419999985024333,-0.004900000058114529,0.00419999985024333,0.004900000058114529,0.9998999834060669,34.824100494384766
0.5920000076293945,61.0,0.9998999834060669,0.002400000113993883,-0.002099999925121665,0.0,-0.003599999938160181,-0.005400000140070915,4.899600028991699,0.0,-0.061000000685453415,0.0,-0.0,0.00430000014603138,0.004900000058114529,-0.0,0.00430000014603138,-0.004900000058114529,0.00430000014603138,0.004900000058114529,0.9998999834060669,34.794700622558594
0.5960000157356262,62.0,0.9998999834060669,0.002400000113993883,-0.002099999925121665,0.0,-0.003599999938160181,-0.005400000140070915,4.899600028991699,0.0,-0.061000000685453415,0.0,-0.0,0.00430000014603138,0.004900000058114529,-0.0,0.00430000014603138,-0.004900000058114529,0.00430000014603138,0.004900000058114529,0.9998999834060669,34.794700622558594
0.6119999885559082,63.0,0.9998999834060669,0.002400000113993883,-0.002199999988079071,0.0,-0.003599999938160181,-0.005400000140070915,4.895400047302246,0.0,-0.061000000685453415,0.0,-0.0,0.004399999976158142,0.004800000227987766,-0.0,0.004399999976158142,-0.004800000227987766,0.004399999976158142,0.004800000227987766,0.9998999834060669,34.83000183105469
0.6159999966621399,64.0,0.9998999834060669,0.002400000113993883,-0.002199999988079071,0.0,-0.003599999938160181,-0.005400000140070915,4.895400047302246,0.0,-0.061000000685453415,0.0,-0.0,0.004399999976158142,0.004800000227987766,-0.0,0.004399999976158142,-0.004800000227987766,0.004399999976158142,0.004800000227987766,0.9998999834060669,34.83000183105469
0.6320000290870667,65.0,0.9998999834060669,0.002400000113993883,-0.002300000051036477,0.0,-0.00419999985024333,-0.003599999938160181,4.89900016784668,-0.061000000685453415,-0.061000000685453415,0.0,-0.0,0.0044999998062849045,0.004800000227987766,-0.0,0.0044999998062849045,-0.004800000227987766,0.0044999998062849045,0.004800000227987766,0.9998999834060669,34.835899353027344
0.6399999856948853,66.0,0.9998999834060669,0.002400000113993883,-0.002300000051036477,0.0,-0.003599999938160181,-0.003599999938160181,4.89900016784668,0.0,-0.061000000685453415,-0.061000000685453415,-0.0,0.0044999998062849045,0.004800000227987766,-0.0,0.0044999998062849045,-0.004800000227987766,0.0044999998062849045,0.004800000227987766,0.9998999834060669,34.83000183105469
0.6439999938011169,67.0,0.9998999834060669,0.002400000113993883,-0.002300000051036477,0.0,-0.003599999938160181,-0.003599999938160181,4.89900016784668,0.0,-0.061000000685453415,-0.061000000685453415,-0.0,0.0044999998062849045,0.004800000227987766,-0.0,0.0044999998062849045,-0.004800000227987766,0.0044999998062849045,0.004800000227987766,0.9998999834060669,34.83000183105469
0.6620000004768372,68.0,0.9998999834060669,0.002300000051036477,-0.002300000051036477,0.0,0.0012000000569969416,-0.0017999999690800905,4.9008002281188965,-0.061000000685453415,-0.061000000685453415,0.0,-0.0,0.004600000102072954,0.004600000102072954,-0.0,0.004600000102072954,-0.004600000102072954,0.004600000102072954,0.004600000102072954,0.9998999834060669,34.818199157714844
0.6710000038146973,69.0,0.9998999834060669,0.002300000051036477,-0.002400000113993883,0.0,0.0012000000569969416,-0.003000000026077032,4.9008002281188965,0.0,-0.061000000685453415,0.0,-0.0,0.004800000227987766,0.004600000102072954,-0.0,0.004800000227987766,-0.004600000102072954,0.004800000227987766,0.004600000102072954,0.9998999834060669,34.812400817871094
0.675000011920929,70.0,0.9998999834060669,0.002300000051036477,-0.002400000113993883,0.0,0.0012000000569969416,-0.003000000026077032,4.9008002281188965,0.0,-0.061000000685453415,0.0,-0.0,0.004800000227987766,0.004600000102072954,-0.0,0.004800000227987766,-0.004600000102072954,0.004800000227987766,0.004600000102072954,0.9998999834060669,34.812400817871094
0.6919999718666077,71.0,0.9998999834060669,0.002300000051036477,-0.002400000113993883,0.0,-0.002400000113993883,-0.003000000026077032,4.903200149536133,0.0,-0.061000000685453415,0.0,-0.0,0.004900000058114529,0.0044999998062849045,-0.0,0.004900000058114529,-0.0044999998062849045,0.004900000058114529,0.0044999998062849045,0.9998999834060669,34.824100494384766
0.7009999752044678,72.0,0.9998999834060669,0.002300000051036477,-0.002400000113993883,0.0,-0.0017999999690800905,-0.006000000052154064,4.904399871826172,-0.061000000685453415,-0.061000000685453415,0.0,-0.0,0.004900000058114529,0.0044999998062849045,-0.0,0.004900000058114529,-0.0044999998062849045,0.004900000058114529,0.0044999998062849045,0.9998999834060669,34.85350036621094
0.7789999842643738,80.0,0.9998999834060669,0.002099999925121665,-0.0027000000700354576,0.0,0.002400000113993883,-0.004800000227987766,4.904399871826172,0.0,-0.061000000685453415,0.0,-0.0,0.005400000140070915,0.00430000014603138,-0.0,0.005400000140070915,-0.00430000014603138,0.005400000140070915,0.00430000014603138,0.9998999834060669,34.847599029541016
0.7879999876022339,81.0,0.9998999834060669,0.002099999925121665,-0.00279999990016222,0.0,0.006000000052154064,-0.005400000140070915,4.9008002281188965,-0.061000000685453415,-0.061000000685453415,-0.061000000685453415,-0.0,0.005499999970197678,0.00419999985024333,-0.0,0.005499999970197678,-0.00419999985024333,0.005499999970197678,0.00419999985024333,0.9998999834060669,34.818199157714844
0.7900000214576721,82.0,0.9998999834060669,0.002099999925121665,-0.00279999990016222,0.0,0.006000000052154064,-0.005400000140070915,4.9008002281188965,-0.061000000685453415,-0.061000000685453415,-0.061000000685453415,-0.0,0.005499999970197678,0.00419999985024333,-0.0,0.005499999970197678,-0.00419999985024333,0.005499999970197678,0.00419999985024333,0.9998999834060669,34.818199157714844
0.8019999861717224,83.0,0.9998999834060669,0.002099999925121665,-0.00279999990016222,0.0,0.0017999999690800905,-0.004800000227987766,4.901400089263916,-0.061000000685453415,-0.061000000685453415,-0.061000000685453415,-0.0,0.005499999970197678,0.00419999985024333,-0.0,0.005499999970197678,-0.00419999985024333,0.005499999970197678,0.00419999985024333,0.9998999834060669,34.818199157714844
0.8040000200271606,84.0,0.9998999834060669,0.002099999925121665,-0.00279999990016222,0.0,0.0017999999690800905,-0.004800000227987766,4.901400089263916,-0.061000000685453415,-0.061000000685453415,-0.061000000685453415,-0.0,0.005499999970197678,0.00419999985024333,-0.0,0.005499999970197678,-0.00419999985024333,0.005499999970197678,0.00419999985024333,0.9998999834060669,34.818199157714844
0.8109999895095825,85.0,0.9998999834060669,0.002099999925121665,-0.00279999990016222,0.0,0.0017999999690800905,-0.004800000227987766,4.901400089263916,-0.061000000685453415,-0.061000000685453415,-0.061000000685453415,-0.0,0.005499999970197678,0.00419999985024333,-0.0,0.005499999970197678,-0.00419999985024333,0.005499999970197678,0.00419999985024333,0.9998999834060669,34.818199157714844
0.8220000267028809,86.0,0.9998999834060669,0.0020000000949949026,-0.00279999990016222,0.0,0.003000000026077032,-0.002400000113993883,4.89900016784668,-0.061000000685453415,-0.061000000685453415,0.0,-0.0,0.00559999980032444,0.004000000189989805,-0.0,0.00559999980032444,-0.004000000189989805,0.00559999980032444,0.004000000189989805,0.9998999834060669,34.818199157714844
0.8259999752044678,87.0,0.9998999834060669,0.0020000000949949026,-0.00279999990016222,0.0,0.003000000026077032,-0.002400000113993883,4.89900016784668,-0.061000000685453415,-0.061000000685453415,0.0,-0.0,0.00559999980032444,0.004000000189989805,-0.0,0.00559999980032444,-0.004000000189989805,0.00559999980032444,0.004000000189989805,0.9998999834060669,34.818199157714844
0.8420000076293945,88.0,0.9998999834060669,0.0020000000949949026,-0.002899999963119626,0.0,0.003000000026077032,0.0006000000284984708,4.89900016784668,-0.061000000685453415,-0.061000000685453415,0.0,-0.0,0.00570000009611249,0.004000000189989805,-0.0,0.00570000009611249,-0.004000000189989805,0.00570000009611249,0.004000000189989805,0.9998999834060669,34.824100494384766
0.8500000238418579,89.0,0.9998999834060669,0.0020000000949949026,-0.002899999963119626,0.0,0.0012000000569969416,0.0012000000569969416,4.900199890136719,0.0,-0.061000000685453415,0.0,-0.0,0.00570000009611249,0.004000000189989805,-0.0,0.00570000009611249,-0.004000000189989805,0.00570000009611249,0.004000000189989805,0.9998999834060669,34.812400817871094
0.8539999723434448,90.0,0.9998999834060669,0.0020000000949949026,-0.002899999963119626,0.0,0.0012000000569969416,0.0012000000569969416,4.900199890136719,0.0,-0.061000000685453415,0.0,-0.0,0.00570000009611249,0.004000000189989805,-0.0,0.00570000009611249,-0.004000000189989805,0.00570000009611249,0.004000000189989805,0.9998999834060669,34.812400817871094
0.8669999837875366,91.0,0.9998999834060669,0.0020000000949949026,-0.002899999963119626,0.0,-0.003000000026077032,0.0012000000569969416,4.899600028991699,-0.061000000685453415,-0.061000000685453415,0.0,-0.0,0.005900000222027302,0.0038999998942017555,-0.0,0.005900000222027302,-0.0038999998942017555,0.005900000222027302,0.0038999998942017555,0.9998999834060669,34.841800689697266
0.8690000176429749,92.0,0.9998999834060669,0.0020000000949949026,-0.002899999963119626,0.0,-0.003000000026077032,0.0012000000569969416,4.899600028991699,-0.061000000685453415,-0.061000000685453415,0.0,-0.0,0.005900000222027302,0.0038999998942017555,-0.0,0.005900000222027302,-0.0038999998942017555,0.005900000222027302,0.0038999998942017555,0.9998999834060669,34.841800689697266
0.8820000290870667,93.0,0.9998999834060669,0.0020000000949949026,-0.002899999963119626,0.0,0.0012000000569969416,0.0012000000569969416,4.899600028991699,-0.061000000685453415,-0.061000000685453415,-0.061000000685453415,-0.0,0.005900000222027302,0.0038999998942017555,-0.0,0.005900000222027302,-0.0038999998942017555,0.005900000222027302,0.0038999998942017555,0.9998999834060669,34.83000183105469
0.8859999775886536,94.0,0.9998999834060669,0.0020000000949949026,-0.002899999963119626,0.0,0.0012000000569969416,0.0012000000569969416,4.899600028991699,-0.061000000685453415,-0.061000000685453415,-0.061000000685453415,-0.0,0.005900000222027302,0.0038999998942017555,-0.0,0.005900000222027302,-0.0038999998942017555,0.005900000222027302,0.0038999998942017555,0.9998999834060669,34.83000183105469
0.8970000147819519,95.0,0.9998999834060669,0.0020000000949949026,-0.003000000026077032,0.0,0.002400000113993883,-0.0006000000284984708,4.901400089263916,0.0,-0.061000000685453415,0.0,-0.0,0.006000000052154064,0.0038999998942017555,-0.0,0.006000000052154064,-0.0038999998942017555,0.006000000052154064,0.0038999998942017555,0.9998999834060669,34.824100494384766
0.9010000228881836,96.0,0.9998999834060669,0.0020000000949949026,-0.003000000026077032,0.0,0.002400000113993883,-0.0006000000284984708,4.901400089263916,0.0,-0.061000000685453415,0.0,-0.0,0.006000000052154064,0.0038999998942017555,-0.0,0.006000000052154064,-0.0038999998942017555,0.006000000052154064,0.0038999998942017555,0.9998999834060669,34.824100494384766
0.9120000004768372,97.0,0.9998999834060669,0.0019000000320374966,-0.003000000026077032,0.0,-0.002400000113993883,-0.0017999999690800905,4.902599811553955,0.0,-0.061000000685453415,0.0,-0.0,0.006099999882280827,0.003800000064074993,-0.0,0.006099999882280827,-0.003800000064074993,0.006099999882280827,0.003800000064074993,0.9998999834060669,34.85350036621094
0.9150000214576721,98.0,0.9998999834060669,0.0019000000320374966,-0.003000000026077032,0.0,-0.002400000113993883,-0.0017999999690800905,4.902599811553955,0.0,-0.061000000685453415,0.0,-0.0,0.006099999882280827,0.003800000064074993,-0.0,0.006099999882280827,-0.003800000064074993,0.006099999882280827,0.003800000064074993,0.9998999834060669,34.85350036621094
0.9309999942779541,99.0,0.9998999834060669,0.0019000000320374966,-0.003000000026077032,0.0,-0.00419999985024333,-0.002400000113993883,4.902599811553955,-0.061000000685453415,-0.061000000685453415,0.0,-0.0,0.006099999882280827,0.003800000064074993,-0.0,0.006099999882280827,-0.003800000064074993,0.006099999882280827,0.003800000064074993,0.9998999834060669,34.835899353027344
0.9390000104904175,100.0,0.9998999834060669,0.0019000000320374966,-0.003100000089034438,0.0,-0.002400000113993883,0.0,4.901400089263916,-0.061000000685453415,-0.061000000685453415,0.0,-0.0,0.006200000178068876,0.003800000064074993,-0.0,0.006200000178068876,-0.003800000064074993,0.006200000178068876,0.003800000064074993,0.9998999834060669,34.841800689697266
0.9430000185966492,101.0,0.9998999834060669,0.0019000000320374966,-0.003100000089034438,0.0,-0.002400000113993883,0.0,4.901400089263916,-0.061000000685453415,-0.061000000685453415,0.0,-0.0,0.006200000178068876,0.003800000064074993,-0.0,0.006200000178068876,-0.003800000064074993,0.006200000178068876,0.003800000064074993,0.9998999834060669,34.841800689697266
0.9620000123977661,102.0,0.9998999834060669,0.0019000000320374966,-0.003100000089034438,0.0,-0.00419999985024333,-0.0012000000569969416,4.901400089263916,-0.061000000685453415,-0.061000000685453415,0.0,-0.0,0.006200000178068876,0.003800000064074993,-0.0,0.006200000178068876,-0.003800000064074993,0.006200000178068876,0.003800000064074993,0.9998999834060669,34.818199157714844
0.9700000286102295,103.0,0.9998999834060669,0.0017999999690800905,-0.0031999999191612005,0.0,-0.004800000227987766,-0.0012000000569969416,4.899600028991699,0.0,-0.061000000685453415,0.0,-0.0,0.006399999838322401,0.003700000001117587,-0.0,0.006399999838322401,-0.003700000001117587,0.006399999838322401,0.003700000001117587,0.9998999834060669,34.824100494384766
0.9739999771118164,104.0,0.9998999834060669,0.0017999999690800905,-0.0031999999191612005,0.0,-0.004800000227987766,-0.0012000000569969416,4.899600028991699,0.0,-0.061000000685453415,0.0,-0.0,0.006399999838322401,0.003700000001117587,-0.0,0.006399999838322401,-0.003700000001117587,0.006399999838322401,0.003700000001117587,0.9998999834060669,34.824100494384766
1.0609999895095825,112.0,0.9998999834060669,0.0017000000225380063,-0.0034000000450760126,9.999999747378752e-05,-0.003000000026077032,-0.003000000026077032,4.894199848175049,-0.061000000685453415,-0.061000000685453415,0.0,-9.999999747378752e-05,0.0066999997943639755,0.0034000000450760126,-9.999999747378752e-05,0.0066999997943639755,-0.0034000000450760126,0.0066999997943639755,0.0034000000450760126,0.9998999834060669,34.824100494384766
1.065000057220459,113.0,0.9998999834060669,0.0017000000225380063,-0.0034000000450760126,9.999999747378752e-05,-0.003000000026077032,-0.003000000026077032,4.894199848175049,-0.061000000685453415,-0.061000000685453415,0.0,-9.999999747378752e-05,0.0066999997943639755,0.0034000000450760126,-9.999999747378752e-05,0.0066999997943639755,-0.0034000000450760126,0.0066999997943639755,0.0034000000450760126,0.9998999834060669,34.824100494384766
1.0750000476837158,114.0,0.9998999834060669,0.0017000000225380063,-0.0034000000450760126,9.999999747378752e-05,-0.0017999999690800905,-0.004800000227987766,4.894800186157227,0.0,-0.061000000685453415,0.0,-9.999999747378752e-05,0.006800000090152025,0.0034000000450760126,-9.999999747378752e-05,0.006800000090152025,-0.0034000000450760126,0.006800000090152025,0.0034000000450760126,0.9998999834060669,34.841800689697266
1.0779999494552612,115.0,0.9998999834060669,0.0017000000225380063,-0.0034000000450760126,9.999999747378752e-05,-0.0017999999690800905,-0.004800000227987766,4.894800186157227,0.0,-0.061000000685453415,0.0,-9.999999747378752e-05,0.006800000090152025,0.0034000000450760126,-9.999999747378752e-05,0.006800000090152025,-0.0034000000450760126,0.006800000090152025,0.0034000000450760126,0.9998999834060669,34.841800689697266
1.0920000076293945,116.0,0.9998999834060669,0.0015999999595806003,-0.0034000000450760126,9.999999747378752e-05,0.0006000000284984708,-0.003000000026077032,4.897799968719482,0.0,-0.061000000685453415,0.0,-9.999999747378752e-05,0.006800000090152025,0.0032999999821186066,-9.999999747378752e-05,0.006800000090152025,-0.0032999999821186066,0.006800000090152025,0.0032999999821186066,0.9998999834060669,34.83000183105469
1.0959999561309814,117.0,0.9998999834060669,0.0015999999595806003,-0.0034000000450760126,9.999999747378752e-05,0.0006000000284984708,-0.003000000026077032,4.897799968719482,0.0,-0.061000000685453415,0.0,-9.999999747378752e-05,0.006800000090152025,0.0032999999821186066,-9.999999747378752e-05,0.006800000090152025,-0.0032999999821186066,0.006800000090152025,0.0032999999821186066,0.9998999834060669,34.83000183105469
1.1059999465942383,118.0,0.9998999834060669,0.0015999999595806003,-0.0035000001080334187,9.999999747378752e-05,0.0012000000569969416,-0.006000000052154064,4.897200107574463,-0.061000000685453415,-0.061000000685453415,-0.061000000685453415,-9.999999747378752e-05,0.007000000216066837,0.0032999999821186066,-9.999999747378752e-05,0.007000000216066837,-0.0032999999821186066,0.007000000216066837,0.0032999999821186066,0.9998999834060669,34.824100494384766
1.1100000143051147,119.0,0.9998999834060669,0.0015999999595806003,-0.0035000001080334187,9.999999747378752e-05,0.0012000000569969416,-0.006000000052154064,4.897200107574463,-0.061000000685453415,-0.061000000685453415,-0.061000000685453415,-9.999999747378752e-05,0.007000000216066837,0.0032999999821186066,-9.999999747378752e-05,0.007000000216066837,-0.0032999999821186066,0.007000000216066837,0.0032999999821186066,0.9998999834060669,34.824100494384766
1.2589999437332153,135.0,0.9998999834060669,0.001500000013038516,-0.003800000064074993,9.999999747378752e-05,-0.003000000026077032,-0.003599999938160181,4.894800186157227,-0.061000000685453415,-0.061000000685453415,0.0,-9.999999747378752e-05,0.007600000128149986,0.002899999963119626,-9.999999747378752e-05,0.007600000128149986,-0.002899999963119626,0.007600000128149986,0.002899999963119626,0.9998999834060669,34.841800689697266
1.2669999599456787,136.0,0.9998999834060669,0.001500000013038516,-0.003800000064074993,9.999999747378752e-05,-0.002400000113993883,-0.003599999938160181,4.889400005340576,-0.061000000685453415,-0.061000000685453415,0.0,-9.999999747378752e-05,0.007699999958276749,0.002899999963119626,-9.999999747378752e-05,0.007699999958276749,-0.002899999963119626,0.007699999958276749,0.002899999963119626,0.9998999834060669,34.835899353027344
1.2710000276565552,137.0,0.9998999834060669,0.001500000013038516,-0.003800000064074993,9.999999747378752e-05,-0.002400000113993883,-0.003599999938160181,4.889400005340576,-0.061000000685453415,-0.061000000685453415,0.0,-9.999999747378752e-05,0.007699999958276749,0.002899999963119626,-9.999999747378752e-05,0.007699999958276749,-0.002899999963119626,0.007699999958276749,0.002899999963119626,0.9998999834060669,34.835899353027344
1.2860000133514404,138.0,0.9998999834060669,0.001500000013038516,-0.003800000064074993,9.999999747378752e-05,-0.002400000113993883,-0.003599999938160181,4.889400005340576,-0.061000000685453415,-0.061000000685453415,0.0,-9.999999747378752e-05,0.007699999958276749,0.002899999963119626,-9.999999747378752e-05,0.007699999958276749,-0.002899999963119626,0.007699999958276749,0.002899999963119626,0.9998999834060669,34.835899353027344
1.2949999570846558,139.0,0.9998999834060669,0.00139999995008111,-0.003800000064074993,9.999999747378752e-05,-0.0012000000569969416,-0.0017999999690800905,4.892399787902832,0.0,-0.061000000685453415,0.0,-9.999999747378752e-05,0.007699999958276749,0.00279999990016222,-9.999999747378752e-05,0.007699999958276749,-0.00279999990016222,0.007699999958276749,0.00279999990016222,0.9998999834060669,34.835899353027344
1.3040000200271606,140.0,0.9998999834060669,0.00139999995008111,-0.003800000064074993,9.999999747378752e-05,-0.0012000000569969416,-0.003599999938160181,4.897799968719482,-0.061000000685453415,-0.061000000685453415,0.0,-9.999999747378752e-05,0.007699999958276749,0.00279999990016222,-9.999999747378752e-05,0.007699999958276749,-0.00279999990016222,0.007699999958276749,0.00279999990016222,0.9998999834060669,34.841800689697266
1.312999963760376,141.0,0.9998999834060669,0.00139999995008111,-0.0038999998942017555,9.999999747378752e-05,0.0,-0.00419999985024333,4.894800186157227,-0.061000000685453415,-0.061000000685453415,0.0,-9.999999747378752e-05,0.007799999788403511,0.00279999990016222,-9.999999747378752e-05,0.007799999788403511,-0.00279999990016222,0.007799999788403511,0.00279999990016222,0.9998999834060669,34.83000183105469
1.3170000314712524,142.0,0.9998999834060669,0.00139999995008111,-0.0038999998942017555,9.999999747378752e-05,0.0,-0.00419999985024333,4.894800186157227,-0.061000000685453415,-0.061000000685453415,0.0,-9.999999747378752e-05,0.007799999788403511,0.00279999990016222,-9.999999747378752e-05,0.007799999788403511,-0.00279999990016222,0.007799999788403511,0.00279999990016222,0.9998999834060669,34.83000183105469
1.3320000171661377,143.0,0.9998999834060669,0.0013000000035390258,-0.0038999998942017555,9.999999747378752e-05,-0.002400000113993883,-0.005400000140070915,4.900199890136719,0.0,-0.061000000685453415,0.0,-9.999999747378752e-05,0.007799999788403511,0.0027000000700354576,-9.999999747378752e-05,0.007799999788403511,-0.0027000000700354576,0.007799999788403511,0.0027000000700354576,0.9998999834060669,34.835899353027344
1.3359999656677246,144.0,0.9998999834060669,0.0013000000035390258,-0.0038999998942017555,9.999999747378752e-05,-0.002400000113993883,-0.005400000140070915,4.900199890136719,0.0,-0.061000000685453415,0.0,-9.999999747378752e-05,0.007799999788403511,0.0027000000700354576,-9.999999747378752e-05,0.007799999788403511,-0.0027000000700354576,0.007799999788403511,0.0027000000700354576,0.9998999834060669,34.835899353027344
1.3519999980926514,145.0,0.9998999834060669,0.0013000000035390258,-0.004000000189989805,9.999999747378752e-05,-0.00419999985024333,-0.002400000113993883,4.899600028991699,0.0,-0.061000000685453415,-0.061000000685453415,-9.999999747378752e-05,0.007899999618530273,0.0027000000700354576,-9.999999747378752e-05,0.007899999618530273,-0.0027000000700354576,0.007899999618530273,0.0027000000700354576,0.9998999834060669,34.83000183105469
1.3600000143051147,146.0,0.9998999834060669,0.0013000000035390258,-0.004000000189989805,9.999999747378752e-05,-0.002400000113993883,-0.003000000026077032,4.900199890136719,-0.061000000685453415,-0.061000000685453415,0.0,-9.999999747378752e-05,0.007899999618530273,0.0027000000700354576,-9.999999747378752e-05,0.007899999618530273,-0.0027000000700354576,0.007899999618530273,0.0027000000700354576,0.9998999834060669,34.847599029541016
1.3639999628067017,147.0,0.9998999834060669,0.0013000000035390258,-0.004000000189989805,9.999999747378752e-05,-0.002400000113993883,-0.003000000026077032,4.900199890136719,-0.061000000685453415,-0.061000000685453415,0.0,-9.999999747378752e-05,0.007899999618530273,0.0027000000700354576,-9.999999747378752e-05,0.007899999618530273,-0.0027000000700354576,0.007899999618530273,0.0027000000700354576,0.9998999834060669,34.847599029541016
1.3819999694824219,148.0,0.9998999834060669,0.0013000000035390258,-0.004000000189989805,9.999999747378752e-05,-0.003000000026077032,-0.002400000113993883,4.900199890136719,-0.061000000685453415,-0.061000000685453415,0.0,-9.999999747378752e-05,0.007899999618530273,0.0027000000700354576,-9.999999747378752e-05,0.007899999618530273,-0.0027000000700354576,0.007899999618530273,0.0027000000700354576,0.9998999834060669,34.818199157714844
1.3899999856948853,149.0,0.9998999834060669,0.0013000000035390258,-0.004000000189989805,9.999999747378752e-05,0.0,-0.0012000000569969416,4.897799968719482,-0.061000000685453415,-0.061000000685453415,0.0,-9.999999747378752e-05,0.008100000210106373,0.0026000000070780516,-9.999999747378752e-05,0.008100000210106373,-0.0026000000070780516,0.008100000210106373,0.0026000000070780516,0.9998999834060669,34.847599029541016
1.3940000534057617,150.0,0.9998999834060669,0.0013000000035390258,-0.004000000189989805,9.999999747378752e-05,0.0,-0.0012000000569969416,4.897799968719482,-0.061000000685453415,-0.061000000685453415,0.0,-9.999999747378752e-05,0.008100000210106373,0.0026000000070780516,-9.999999747378752e-05,0.008100000210106373,-0.0026000000070780516,0.008100000210106373,0.0026000000070780516,0.9998999834060669,34.847599029541016
1.4119999408721924,151.0,0.9998999834060669,0.0013000000035390258,-0.004000000189989805,9.999999747378752e-05,-0.0012000000569969416,-0.002400000113993883,4.895999908447266,-0.061000000685453415,-0.061000000685453415,0.0,-9.999999747378752e-05,0.008100000210106373,0.0026000000070780516,-9.999999747378752e-05,0.008100000210106373,-0.0026000000070780516,0.008100000210106373,0.0026000000070780516,0.9998999834060669,34.83000183105469
1.4199999570846558,152.0,0.9998999834060669,0.0013000000035390258,-0.004100000020116568,9.999999747378752e-05,-0.003599999938160181,-0.0012000000569969416,4.897200107574463,-0.061000000685453415,-0.061000000685453415,0.0,-9.999999747378752e-05,0.008200000040233135,0.0026000000070780516,-9.999999747378752e-05,0.008200000040233135,-0.0026000000070780516,0.008200000040233135,0.0026000000070780516,0.9998999834060669,34.83000183105469
1.4240000247955322,153.0,0.9998999834060669,0.0013000000035390258,-0.004100000020116568,9.999999747378752e-05,-0.003599999938160181,-0.0012000000569969416,4.897200107574463,-0.061000000685453415,-0.061000000685453415,0.0,-9.999999747378752e-05,0.008200000040233135,0.0026000000070780516,-9.999999747378752e-05,0.008200000040233135,-0.0026000000070780516,0.008200000040233135,0.0026000000070780516,0.9998999834060669,34.83000183105469
1.4420000314712524,154.0,0.9998999834060669,0.0012000000569969416,-0.004100000020116568,9.999999747378752e-05,-0.003000000026077032,-0.006000000052154064,4.897200107574463,-0.061000000685453415,-0.061000000685453415,0.0,-9.999999747378752e-05,0.008200000040233135,0.002400000113993883,-9.999999747378752e-05,0.008200000040233135,-0.002400000113993883,0.008200000040233135,0.002400000113993883,0.9998999834060669,34.83000183105469
1.4509999752044678,155.0,0.9998999834060669,0.0012000000569969416,-0.00419999985024333,9.999999747378752e-05,-0.0017999999690800905,-0.003599999938160181,4.897799968719482,0.0,-0.061000000685453415,0.0,-9.999999747378752e-05,0.008299999870359898,0.002400000113993883,-9.999999747378752e-05,0.008299999870359898,-0.002400000113993883,0.008299999870359898,0.002400000113993883,0.9998999834060669,34.824100494384766
1.4539999961853027,156.0,0.9998999834060669,0.0012000000569969416,-0.00419999985024333,9.999999747378752e-05,-0.0017999999690800905,-0.003599999938160181,4.897799968719482,0.0,-0.061000000685453415,0.0,-9.999999747378752e-05,0.008299999870359898,0.002400000113993883,-9.999999747378752e-05,0.008299999870359898,-0.002400000113993883,0.008299999870359898,0.002400000113993883,0.9998999834060669,34.824100494384766
1.472000002861023,157.0,0.9998999834060669,0.0012000000569969416,-0.00419999985024333,9.999999747378752e-05,-0.0012000000569969416,-0.003000000026077032,4.896599769592285,0.0,-0.061000000685453415,0.0,-9.999999747378752e-05,0.008299999870359898,0.002400000113993883,-9.999999747378752e-05,0.008299999870359898,-0.002400000113993883,0.008299999870359898,0.002400000113993883,0.9998999834060669,34.835899353027344
1.4809999465942383,158.0,0.9998999834060669,0.0012000000569969416,-0.00419999985024333,9.999999747378752e-05,-0.00419999985024333,-0.0006000000284984708,4.894199848175049,-0.061000000685453415,-0.061000000685453415,0.0,-9.999999747378752e-05,0.008299999870359898,0.002400000113993883,-9.999999747378752e-05,0.008299999870359898,-0.002400000113993883,0.008299999870359898,0.002400000113993883,0.9998999834060669,34.818199157714844
1.4850000143051147,159.0,0.9998999834060669,0.0012000000569969416,-0.00419999985024333,9.999999747378752e-05,-0.00419999985024333,-0.0006000000284984708,4.894199848175049,-0.061000000685453415,-0.061000000685453415,0.0,-9.999999747378752e-05,0.008299999870359898,0.002400000113993883,-9.999999747378752e-05,0.008299999870359898,-0.002400000113993883,0.008299999870359898,0.002400000113993883,0.9998999834060669,34.818199157714844
1.4980000257492065,160.0,0.9998999834060669,0.0012000000569969416,-0.00419999985024333,9.999999747378752e-05,-0.005400000140070915,0.0,4.897200107574463,0.0,-0.061000000685453415,0.0,-9.999999747378752e-05,0.00839999970048666,0.002400000113993883,-9.999999747378752e-05,0.00839999970048666,-0.002400000113993883,0.00839999970048666,0.002400000113993883,0.9998999834060669,34.812400817871094
1.5019999742507935,161.0,0.9998999834060669,0.0012000000569969416,-0.00419999985024333,9.999999747378752e-05,-0.005400000140070915,0.0,4.897200107574463,0.0,-0.061000000685453415,0.0,-9.999999747378752e-05,0.00839999970048666,0.002400000113993883,-9.999999747378752e-05,0.00839999970048666,-0.002400000113993883,0.00839999970048666,0.002400000113993883,0.9998999834060669,34.812400817871094
1.5219999551773071,162.0,0.9998999834060669,0.0012000000569969416,-0.00419999985024333,9.999999747378752e-05,-0.0012000000569969416,-0.003000000026077032,4.896599769592285,0.0,-0.061000000685453415,0.0,-9.999999747378752e-05,0.00839999970048666,0.002300000051036477,-9.999999747378752e-05,0.00839999970048666,-0.002300000051036477,0.00839999970048666,0.002300000051036477,0.9998999834060669,34.835899353027344
1.5260000228881836,163.0,0.9998999834060669,0.0012000000569969416,-0.00419999985024333,9.999999747378752e-05,-0.0012000000569969416,-0.003000000026077032,4.896599769592285,0.0,-0.061000000685453415,0.0,-9.999999747378752e-05,0.00839999970048666,0.002300000051036477,-9.999999747378752e-05,0.00839999970048666,-0.002300000051036477,0.00839999970048666,0.002300000051036477,0.9998999834060669,34.835899353027344
1.6009999513626099,171.0,0.9998999834060669,0.0012000000569969416,-0.004399999976158142,9.999999747378752e-05,0.00419999985024333,-0.002400000113993883,4.897799968719482,-0.061000000685453415,-0.061000000685453415,0.0,-9.999999747378752e-05,0.008799999952316284,0.002300000051036477,-9.999999747378752e-05,0.008799999952316284,-0.002300000051036477,0.008799999952316284,0.002300000051036477,0.9998999834060669,34.841800689697266
1.6050000190734863,172.0,0.9998999834060669,0.0012000000569969416,-0.004399999976158142,9.999999747378752e-05,0.00419999985024333,-0.002400000113993883,4.897799968719482,-0.061000000685453415,-0.061000000685453415,0.0,-9.999999747378752e-05,0.008799999952316284,0.002300000051036477,-9.999999747378752e-05,0.008799999952316284,-0.002300000051036477,0.008799999952316284,0.002300000051036477,0.9998999834060669,34.841800689697266
1.6169999837875366,173.0,0.9998999834060669,0.0010999999940395355,-0.004399999976158142,9.999999747378752e-05,0.00419999985024333,-0.0017999999690800905,4.894800186157227,0.0,-0.061000000685453415,0.0,-9.999999747378752e-05,0.008799999952316284,0.002199999988079071,-9.999999747378752e-05,0.008799999952316284,-0.002199999988079071,0.008799999952316284,0.002199999988079071,0.9998999834060669,34.83000183105469
1.61899995803833,174.0,0.9998999834060669,0.0010999999940395355,-0.004399999976158142,9.999999747378752e-05,0.00419999985024333,-0.0017999999690800905,4.894800186157227,0.0,-0.061000000685453415,0.0,-9.999999747378752e-05,0.008799999952316284,0.002199999988079071,-9.999999747378752e-05,0.008799999952316284,-0.002199999988079071,0.008799999952316284,0.002199999988079071,0.9998999834060669,34.83000183105469
1.6299999952316284,175.0,0.9998999834060669,0.0010999999940395355,-0.004399999976158142,9.999999747378752e-05,0.0012000000569969416,-0.0012000000569969416,4.896599769592285,0.0,-0.061000000685453415,0.0,-9.999999747378752e-05,0.008799999952316284,0.002199999988079071,-9.999999747378752e-05,0.008799999952316284,-0.002199999988079071,0.008799999952316284,0.002199999988079071,0.9998999834060669,34.824100494384766
1.6339999437332153,176.0,0.9998999834060669,0.0010999999940395355,-0.004399999976158142,9.999999747378752e-05,0.0012000000569969416,-0.0012000000569969416,4.896599769592285,0.0,-0.061000000685453415,0.0,-9.999999747378752e-05,0.008799999952316284,0.002199999988079071,-9.999999747378752e-05,0.008799999952316284,-0.002199999988079071,0.008799999952316284,0.002199999988079071,0.9998999834060669,34.824100494384766
1.6480000019073486,177.0,0.9998999834060669,0.0010999999940395355,-0.0044999998062849045,9.999999747378752e-05,0.0012000000569969416,-0.0012000000569969416,4.898399829864502,-0.061000000685453415,-0.061000000685453415,0.0,-9.999999747378752e-05,0.008899999782443047,0.002199999988079071,-9.999999747378752e-05,0.008899999782443047,-0.002199999988079071,0.008899999782443047,0.002199999988079071,0.9998999834060669,34.818199157714844
1.6519999504089355,178.0,0.9998999834060669,0.0010999999940395355,-0.0044999998062849045,9.999999747378752e-05,0.0012000000569969416,-0.0012000000569969416,4.898399829864502,-0.061000000685453415,-0.061000000685453415,0.0,-9.999999747378752e-05,0.008899999782443047,0.002199999988079071,-9.999999747378752e-05,0.008899999782443047,-0.002199999988079071,0.008899999782443047,0.002199999988079071,0.9998999834060669,34.818199157714844
1.6720000505447388,179.0,0.9998999834060669,0.0010999999940395355,-0.0044999998062849045,9.999999747378752e-05,0.0006000000284984708,-0.0006000000284984708,4.896599769592285,-0.061000000685453415,-0.061000000685453415,-0.061000000685453415,-9.999999747378752e-05,0.008899999782443047,0.002199999988079071,-9.999999747378752e-05,0.008899999782443047,-0.002199999988079071,0.008899999782443047,0.002199999988079071,0.9998999834060669,34.80649948120117
1.6799999475479126,180.0,0.9998999834060669,0.0010999999940395355,-0.0044999998062849045,9.999999747378752e-05,-0.0006000000284984708,0.0,4.895999908447266,0.0,-0.061000000685453415,0.0,-9.999999747378752e-05,0.008899999782443047,0.002199999988079071,-9.999999747378752e-05,0.008899999782443047,-0.002199999988079071,0.008899999782443047,0.002199999988079071,0.9998999834060669,34.835899353027344
1.687999963760376,181.0,0.9998999834060669,0.0010999999940395355,-0.0044999998062849045,9.999999747378752e-05,-0.0017999999690800905,0.0012000000569969416,4.897799968719482,0.0,-0.061000000685453415,0.0,-9.999999747378752e-05,0.008999999612569809,0.002199999988079071,-9.999999747378752e-05,0.008999999612569809,-0.002199999988079071,0.008999999612569809,0.002199999988079071,0.9998999834060669,34.841800689697266
1.6920000314712524,182.0,0.9998999834060669,0.0010999999940395355,-0.0044999998062849045,9.999999747378752e-05,-0.0017999999690800905,0.0012000000569969416,4.897799968719482,0.0,-0.061000000685453415,0.0,-9.999999747378752e-05,0.008999999612569809,0.002199999988079071,-9.999999747378752e-05,0.008999999612569809,-0.002199999988079071,0.008999999612569809,0.002199999988079071,0.9998999834060669,34.841800689697266
1.7029999494552612,183.0,0.9998999834060669,0.0010999999940395355,-0.0044999998062849045,9.999999747378752e-05,-0.0017999999690800905,0.0,4.898399829864502,0.0,-0.061000000685453415,0.0,-9.999999747378752e-05,0.008999999612569809,0.002199999988079071,-9.999999747378752e-05,0.008999999612569809,-0.002199999988079071,0.008999999612569809,0.002199999988079071,0.9998999834060669,34.835899353027344
1.7070000171661377,184.0,0.9998999834060669,0.0010999999940395355,-0.0044999998062849045,9.999999747378752e-05,-0.0017999999690800905,0.0,4.898399829864502,0.0,-0.061000000685453415,0.0,-9.999999747378752e-05,0.008999999612569809,0.002199999988079071,-9.999999747378752e-05,0.008999999612569809,-0.002199999988079071,0.008999999612569809,0.002199999988079071,0.9998999834060669,34.835899353027344
1.7170000076293945,185.0,0.9998999834060669,0.0010000000474974513,-0.0044999998062849045,9.999999747378752e-05,-0.004800000227987766,-0.0012000000569969416,4.894199848175049,0.0,-0.061000000685453415,0.0,-9.999999747378752e-05,0.008999999612569809,0.002099999925121665,-9.999999747378752e-05,0.008999999612569809,-0.002099999925121665,0.008999999612569809,0.002099999925121665,0.9998999834060669,34.824100494384766
1.7209999561309814,186.0,0.9998999834060669,0.0010000000474974513,-0.0044999998062849045,9.999999747378752e-05,-0.004800000227987766,-0.0012000000569969416,4.894199848175049,0.0,-0.061000000685453415,0.0,-9.999999747378752e-05,0.008999999612569809,0.002099999925121665,-9.999999747378752e-05,0.008999999612569809,-0.002099999925121665,0.008999999612569809,0.002099999925121665,0.9998999834060669,34.824100494384766
1.7419999837875366,187.0,0.9998999834060669,0.0010000000474974513,-0.0044999998062849045,9.999999747378752e-05,-0.007199999876320362,-0.003000000026077032,4.895400047302246,0.0,-0.061000000685453415,0.0,-9.999999747378752e-05,0.008999999612569809,0.002099999925121665,-9.999999747378752e-05,0.008999999612569809,-0.002099999925121665,0.008999999612569809,0.002099999925121665,0.9998999834060669,34.83000183105469
1.75,188.0,0.9998999834060669,0.0010000000474974513,-0.0044999998062849045,9.999999747378752e-05,-0.005400000140070915,-0.003000000026077032,4.897200107574463,-0.061000000685453415,-0.061000000685453415,0.0,-9.999999747378752e-05,0.008999999612569809,0.002099999925121665,-9.999999747378752e-05,0.008999999612569809,-0.002099999925121665,0.008999999612569809,0.002099999925121665,0.9998999834060669,34.818199157714844
1.753999948501587,189.0,0.9998999834060669,0.0010000000474974513,-0.0044999998062849045,9.999999747378752e-05,-0.005400000140070915,-0.003000000026077032,4.897200107574463,-0.061000000685453415,-0.061000000685453415,0.0,-9.999999747378752e-05,0.008999999612569809,0.002099999925121665,-9.999999747378752e-05,0.008999999612569809,-0.002099999925121665,0.008999999612569809,0.002099999925121665,0.9998999834060669,34.818199157714844
1.7719999551773071,190.0,0.9998999834060669,0.0010000000474974513,-0.004600000102072954,9.999999747378752e-05,-0.004800000227987766,-0.003000000026077032,4.900199890136719,-0.061000000685453415,-0.061000000685453415,0.0,-9.999999747378752e-05,0.009200000204145908,0.002099999925121665,-9.999999747378752e-05,0.009200000204145908,-0.002099999925121665,0.009200000204145908,0.002099999925121665,0.9998999834060669,34.85940170288086
1.781000018119812,191.0,0.9998999834060669,0.0010000000474974513,-0.004600000102072954,9.999999747378752e-05,-0.007199999876320362,-0.0012000000569969416,4.897200107574463,0.0,-0.061000000685453415,0.0,-9.999999747378752e-05,0.009200000204145908,0.002099999925121665,-9.999999747378752e-05,0.009200000204145908,-0.002099999925121665,0.009200000204145908,0.002099999925121665,0.9998999834060669,34.841800689697266
1.7829999923706055,192.0,0.9998999834060669,0.0010000000474974513,-0.004600000102072954,9.999999747378752e-05,-0.007199999876320362,-0.0012000000569969416,4.897200107574463,0.0,-0.061000000685453415,0.0,-9.999999747378752e-05,0.009200000204145908,0.002099999925121665,-9.999999747378752e-05,0.009200000204145908,-0.002099999925121665,0.009200000204145908,0.002099999925121665,0.9998999834060669,34.841800689697266
1.7940000295639038,193.0,0.9998999834060669,0.0010000000474974513,-0.004600000102072954,9.999999747378752e-05,-0.00419999985024333,-0.0012000000569969416,4.897200107574463,0.0,-0.061000000685453415,0.0,-0.00019999999494757503,0.009200000204145908,0.002099999925121665,-0.00019999999494757503,0.009200000204145908,-0.002099999925121665,0.009200000204145908,0.002099999925121665,0.9998999834060669,34.835899353027344
1.7979999780654907,194.0,0.9998999834060669,0.0010000000474974513,-0.004600000102072954,9.999999747378752e-05,-0.00419999985024333,-0.0012000000569969416,4.897200107574463,0.0,-0.061000000685453415,0.0,-0.00019999999494757503,0.009200000204145908,0.002099999925121665,-0.00019999999494757503,0.009200000204145908,-0.002099999925121665,0.009200000204145908,0.002099999925121665,0.9998999834060669,34.835899353027344
1.812000036239624,195.0,0.9998999834060669,0.0010000000474974513,-0.004600000102072954,9.999999747378752e-05,-0.003000000026077032,-0.0006000000284984708,4.897200107574463,-0.061000000685453415,-0.061000000685453415,-0.061000000685453415,-0.00019999999494757503,0.009200000204145908,0.0020000000949949026,-0.00019999999494757503,0.009200000204145908,-0.0020000000949949026,0.009200000204145908,0.0020000000949949026,0.9998999834060669,34.824100494384766
1.8899999856948853,203.0,0.9998999834060669,0.0010000000474974513,-0.004699999932199717,9.999999747378752e-05,0.0006000000284984708,-0.003599999938160181,4.904399871826172,0.0,-0.061000000685453415,0.0,-0.00019999999494757503,0.009399999864399433,0.0020000000949949026,-0.00019999999494757503,0.009399999864399433,-0.0020000000949949026,0.009399999864399433,0.0020000000949949026,0.9998000264167786,34.835899353027344
1.8990000486373901,204.0,0.9998999834060669,0.0008999999845400453,-0.004699999932199717,9.999999747378752e-05,-0.0012000000569969416,-0.00419999985024333,4.90500020980835,-0.061000000685453415,-0.061000000685453415,0.0,-0.00019999999494757503,0.009399999864399433,0.0017999999690800905,-0.00019999999494757503,0.009399999864399433,-0.0017999999690800905,0.009399999864399433,0.0017999999690800905,0.9998999834060669,34.835899353027344
1.9019999504089355,205.0,0.9998999834060669,0.0008999999845400453,-0.004699999932199717,9.999999747378752e-05,-0.0012000000569969416,-0.00419999985024333,4.90500020980835,-0.061000000685453415,-0.061000000685453415,0.0,-0.00019999999494757503,0.009399999864399433,0.0017999999690800905,-0.00019999999494757503,0.009399999864399433,-0.0017999999690800905,0.009399999864399433,0.0017999999690800905,0.9998999834060669,34.835899353027344
1.9149999618530273,206.0,0.9998999834060669,0.0008999999845400453,-0.004800000227987766,9.999999747378752e-05,0.002400000113993883,-0.00419999985024333,4.905600070953369,0.0,-0.061000000685453415,0.0,-0.00019999999494757503,0.009499999694526196,0.0017999999690800905,-0.00019999999494757503,0.009499999694526196,-0.0017999999690800905,0.009499999694526196,0.0017999999690800905,0.9998000264167786,34.83000183105469
1.9190000295639038,207.0,0.9998999834060669,0.0008999999845400453,-0.004800000227987766,9.999999747378752e-05,0.002400000113993883,-0.00419999985024333,4.905600070953369,0.0,-0.061000000685453415,0.0,-0.00019999999494757503,0.009499999694526196,0.0017999999690800905,-0.00019999999494757503,0.009499999694526196,-0.0017999999690800905,0.009499999694526196,0.0017999999690800905,0.9998000264167786,34.83000183105469
1.9320000410079956,208.0,0.9998999834060669,0.0008999999845400453,-0.004800000227987766,9.999999747378752e-05,0.00419999985024333,-0.005400000140070915,4.903200149536133,-0.061000000685453415,-0.061000000685453415,0.0,-0.00019999999494757503,0.009499999694526196,0.0017999999690800905,-0.00019999999494757503,0.009499999694526196,-0.0017999999690800905,0.009499999694526196,0.0017999999690800905,0.9998000264167786,34.824100494384766
1.9359999895095825,209.0,0.9998999834060669,0.0008999999845400453,-0.004800000227987766,9.999999747378752e-05,0.00419999985024333,-0.005400000140070915,4.903200149536133,-0.061000000685453415,-0.061000000685453415,0.0,-0.00019999999494757503,0.009499999694526196,0.0017999999690800905,-0.00019999999494757503,0.009499999694526196,-0.0017999999690800905,0.009499999694526196,0.0017999999690800905,0.9998000264167786,34.824100494384766
1.9500000476837158,210.0,0.9998999834060669,0.0008999999845400453,-0.004800000227987766,9.999999747378752e-05,0.00419999985024333,-0.005400000140070915,4.901400089263916,-0.061000000685453415,-0.061000000685453415,0.0,-0.00019999999494757503,0.009600000455975533,0.0017999999690800905,-0.00019999999494757503,0.009600000455975533,-0.0017999999690800905,0.009600000455975533,0.0017999999690800905,0.9998000264167786,34.824100494384766
1.9579999446868896,211.0,0.9998999834060669,0.0007999999797903001,-0.004800000227987766,9.999999747378752e-05,0.003000000026077032,-0.005400000140070915,4.903200149536133,0.0,-0.061000000685453415,0.0,-0.00019999999494757503,0.009600000455975533,0.0017000000225380063,-0.00019999999494757503,0.009600000455975533,-0.0017000000225380063,0.009600000455975533,0.0017000000225380063,0.9998000264167786,34.83000183105469
1.9620000123977661,212.0,0.9998999834060669,0.0007999999797903001,-0.004800000227987766,9.999999747378752e-05,0.003000000026077032,-0.005400000140070915,4.903200149536133,0.0,-0.061000000685453415,0.0,-0.00019999999494757503,0.009600000455975533,0.0017000000225380063,-0.00019999999494757503,0.009600000455975533,-0.0017000000225380063,0.009600000455975533,0.0017000000225380063,0.9998000264167786,34.83000183105469
1.9759999513626099,213.0,0.9998999834060669,0.0007999999797903001,-0.004800000227987766,9.999999747378752e-05,0.003000000026077032,-0.005400000140070915,4.903200149536133,0.0,-0.061000000685453415,0.0,-0.00019999999494757503,0.009600000455975533,0.0017000000225380063,-0.00019999999494757503,0.009600000455975533,-0.0017000000225380063,0.009600000455975533,0.0017000000225380063,0.9998000264167786,34.83000183105469
1.9839999675750732,214.0,0.9998999834060669,0.0007999999797903001,-0.004800000227987766,9.999999747378752e-05,0.0,-0.004800000227987766,4.9019999504089355,-0.061000000685453415,-0.061000000685453415,-0.061000000685453415,-0.00019999999494757503,0.009600000455975533,0.0017000000225380063,-0.00019999999494757503,0.009600000455975533,-0.0017000000225380063,0.009600000455975533,0.0017000000225380063,0.9998000264167786,34.85940170288086
1.9919999837875366,215.0,0.9998999834060669,0.0007999999797903001,-0.004900000058114529,9.999999747378752e-05,0.0012000000569969416,-0.004800000227987766,4.89900016784668,-0.061000000685453415,-0.061000000685453415,0.0,-0.00019999999494757503,0.009800000116229057,0.0017000000225380063,-0.00019999999494757503,0.009800000116229057,-0.0017000000225380063,0.009800000116229057,0.0017000000225380063,0.9998000264167786,34.83000183105469
1.996000051498413,216.0,0.9998999834060669,0.0007999999797903001,-0.004900000058114529,9.999999747378752e-05,0.0012000000569969416,-0.004800000227987766,4.89900016784668,-0.061000000685453415,-0.061000000685453415,0.0,-0.00019999999494757503,0.009800000116229057,0.0017000000225380063,-0.00019999999494757503,0.009800000116229057,-0.0017000000225380063,0.009800000116229057,0.0017000000225380063,0.9998000264167786,34.83000183105469
2.007999897003174,217.0,0.9998999834060669,0.0007999999797903001,-0.004900000058114529,9.999999747378752e-05,-0.0006000000284984708,-0.003599999938160181,4.90500020980835,0.0,-0.061000000685453415,0.0,-0.00019999999494757503,0.009800000116229057,0.0017000000225380063,-0.00019999999494757503,0.009800000116229057,-0.0017000000225380063,0.009800000116229057,0.0017000000225380063,0.9998000264167786,34.835899353027344
2.01200008392334,218.0,0.9998999834060669,0.0007999999797903001,-0.004900000058114529,9.999999747378752e-05,-0.0006000000284984708,-0.003599999938160181,4.90500020980835,0.0,-0.061000000685453415,0.0,-0.00019999999494757503,0.009800000116229057,0.0017000000225380063,-0.00019999999494757503,0.009800000116229057,-0.0017000000225380063,0.009800000116229057,0.0017000000225380063,0.9998000264167786,34.835899353027344
2.0220000743865967,219.0,0.9998999834060669,0.0007999999797903001,-0.004900000058114529,9.999999747378752e-05,-0.002400000113993883,0.0006000000284984708,4.912199974060059,0.0,-0.061000000685453415,0.0,-0.00019999999494757503,0.009800000116229057,0.0017000000225380063,-0.00019999999494757503,0.009800000116229057,-0.0017000000225380063,0.009800000116229057,0.0017000000225380063,0.9998000264167786,34.835899353027344
2.0260000228881836,220.0,0.9998999834060669,0.0007999999797903001,-0.004900000058114529,9.999999747378752e-05,-0.002400000113993883,0.0006000000284984708,4.912199974060059,0.0,-0.061000000685453415,0.0,-0.00019999999494757503,0.009800000116229057,0.0017000000225380063,-0.00019999999494757503,0.009800000116229057,-0.0017000000225380063,0.009800000116229057,0.0017000000225380063,0.9998000264167786,34.835899353027344
2.0420000553131104,221.0,0.9998999834060669,0.0007999999797903001,-0.004900000058114529,9.999999747378752e-05,-0.0006000000284984708,-0.0006000000284984708,4.907400131225586,-0.061000000685453415,-0.061000000685453415,0.0,-0.00019999999494757503,0.009800000116229057,0.0017000000225380063,-0.00019999999494757503,0.009800000116229057,-0.0017000000225380063,0.009800000116229057,0.0017000000225380063,0.9998000264167786,34.841800689697266
2.0510001182556152,222.0,0.9998999834060669,0.0007999999797903001,-0.004900000058114529,9.999999747378752e-05,-0.0006000000284984708,0.0,4.907400131225586,0.0,-0.061000000685453415,0.0,-0.00019999999494757503,0.009800000116229057,0.0017000000225380063,-0.00019999999494757503,0.009800000116229057,-0.0017000000225380063,0.009800000116229057,0.0017000000225380063,0.9998000264167786,34.835899353027344
2.055000066757202,223.0,0.9998999834060669,0.0007999999797903001,-0.004900000058114529,9.999999747378752e-05,-0.0006000000284984708,0.0,4.907400131225586,0.0,-0.061000000685453415,0.0,-0.00019999999494757503,0.009800000116229057,0.0017000000225380063,-0.00019999999494757503,0.009800000116229057,-0.0017000000225380063,0.009800000116229057,0.0017000000225380063,0.9998000264167786,34.835899353027344
2.072000026702881,224.0,0.9998999834060669,0.0007999999797903001,-0.004900000058114529,9.999999747378752e-05,-0.0012000000569969416,-0.002400000113993883,4.90500020980835,0.0,-0.061000000685453415,0.0,-0.00019999999494757503,0.00989999994635582,0.0017000000225380063,-0.00019999999494757503,0.00989999994635582,-0.0017000000225380063,0.00989999994635582,0.0017000000225380063,0.9998000264167786,34.835899353027344
2.0799999237060547,225.0,0.9998999834060669,0.0007999999797903001,-0.004900000058114529,9.999999747378752e-05,-0.003599999938160181,-0.003000000026077032,4.902599811553955,0.0,-0.061000000685453415,0.0,-0.00019999999494757503,0.00989999994635582,0.0017000000225380063,-0.00019999999494757503,0.00989999994635582,-0.0017000000225380063,0.00989999994635582,0.0017000000225380063,0.9998000264167786,34.83000183105469
2.0840001106262207,226.0,0.9998999834060669,0.0007999999797903001,-0.004900000058114529,9.999999747378752e-05,-0.003599999938160181,-0.003000000026077032,4.902599811553955,0.0,-0.061000000685453415,0.0,-0.00019999999494757503,0.00989999994635582,0.0017000000225380063,-0.00019999999494757503,0.00989999994635582,-0.0017000000225380063,0.00989999994635582,0.0017000000225380063,0.9998000264167786,34.83000183105469
2.1019999980926514,227.0,0.9998999834060669,0.0007999999797903001,-0.004900000058114529,0.00019999999494757503,-0.00419999985024333,-0.003000000026077032,4.903800010681152,0.0,-0.061000000685453415,0.0,-0.00039999998989515007,0.00989999994635582,0.0017000000225380063,-0.00039999998989515007,0.00989999994635582,-0.0017000000225380063,0.00989999994635582,0.0017000000225380063,0.9998000264167786,34.835899353027344
2.109999895095825,228.0,0.9998999834060669,0.0007999999797903001,-0.004900000058114529,0.00019999999494757503,-0.005400000140070915,-0.00419999985024333,4.9019999504089355,0.0,-0.061000000685453415,0.0,-0.00039999998989515007,0.00989999994635582,0.0015999999595806003,-0.00039999998989515007,0.00989999994635582,-0.0015999999595806003,0.00989999994635582,0.0015999999595806003,0.9998000264167786,34.824100494384766
2.114000082015991,229.0,0.9998999834060669,0.0007999999797903001,-0.004900000058114529,0.00019999999494757503,-0.005400000140070915,-0.00419999985024333,4.9019999504089355,0.0,-0.061000000685453415,0.0,-0.00039999998989515007,0.00989999994635582,0.0015999999595806003,-0.00039999998989515007,0.00989999994635582,-0.0015999999595806003,0.00989999994635582,0.0015999999595806003,0.9998000264167786,34.824100494384766
2.131999969482422,230.0,0.9998999834060669,0.0007999999797903001,-0.004900000058114529,0.00019999999494757503,-0.004800000227987766,-0.004800000227987766,4.901400089263916,-0.061000000685453415,-0.061000000685453415,0.0,-0.00039999998989515007,0.00989999994635582,0.0015999999595806003,-0.00039999998989515007,0.00989999994635582,-0.0015999999595806003,0.00989999994635582,0.0015999999595806003,0.9998000264167786,34.841800689697266
2.140000104904175,231.0,0.9998999834060669,0.0007999999797903001,-0.004999999888241291,0.00019999999494757503,-0.0017999999690800905,-0.003000000026077032,4.902599811553955,-0.061000000685453415,-0.061000000685453415,0.0,-0.00039999998989515007,0.009999999776482582,0.0015999999595806003,-0.00039999998989515007,0.009999999776482582,-0.0015999999595806003,0.009999999776482582,0.0015999999595806003,0.9998000264167786,34.85350036621094
2.1440000534057617,232.0,0.9998999834060669,0.0007999999797903001,-0.004999999888241291,0.00019999999494757503,-0.0017999999690800905,-0.003000000026077032,4.902599811553955,-0.061000000685453415,-0.061000000685453415,0.0,-0.00039999998989515007,0.009999999776482582,0.0015999999595806003,-0.00039999998989515007,0.009999999776482582,-0.0015999999595806003,0.009999999776482582,0.0015999999595806003,0.9998000264167786,34.85350036621094
2.1619999408721924,233.0,0.9998999834060669,0.0007999999797903001,-0.004999999888241291,0.00019999999494757503,0.0,-0.004800000227987766,4.901400089263916,0.0,-0.061000000685453415,0.0,-0.00039999998989515007,0.009999999776482582,0.0015999999595806003,-0.00039999998989515007,0.009999999776482582,-0.0015999999595806003,0.009999999776482582,0.0015999999595806003,0.9998000264167786,34.83000183105469
2.1710000038146973,234.0,0.9998999834060669,0.000699999975040555,-0.004999999888241291,0.00019999999494757503,-0.0017999999690800905,-0.005400000140070915,4.905600070953369,0.0,-0.061000000685453415,0.0,-0.00039999998989515007,0.009999999776482582,0.001500000013038516,-0.00039999998989515007,0.009999999776482582,-0.001500000013038516,0.009999999776482582,0.001500000013038516,0.9998000264167786,34.835899353027344
2.174999952316284,235.0,0.9998999834060669,0.000699999975040555,-0.004999999888241291,0.00019999999494757503,-0.0017999999690800905,-0.005400000140070915,4.905600070953369,0.0,-0.061000000685453415,0.0,-0.00039999998989515007,0.009999999776482582,0.001500000013038516,-0.00039999998989515007,0.009999999776482582,-0.001500000013038516,0.009999999776482582,0.001500000013038516,0.9998000264167786,34.835899353027344
2.191999912261963,236.0,0.9998999834060669,0.000699999975040555,-0.004999999888241291,0.00019999999494757503,0.0017999999690800905,-0.003599999938160181,4.904399871826172,0.0,-0.061000000685453415,0.0,-0.00039999998989515007,0.009999999776482582,0.001500000013038516,-0.00039999998989515007,0.009999999776482582,-0.001500000013038516,0.009999999776482582,0.001500000013038516,0.9998000264167786,34.83000183105469
2.2009999752044678,237.0,0.9998999834060669,0.000699999975040555,-0.005100000184029341,0.00019999999494757503,0.0017999999690800905,-0.006599999964237213,4.89900016784668,-0.061000000685453415,-0.061000000685453415,-0.061000000685453415,-0.00039999998989515007,0.010099999606609344,0.001500000013038516,-0.00039999998989515007,0.010099999606609344,-0.001500000013038516,0.010099999606609344,0.001500000013038516,0.9998000264167786,34.841800689697266
2.2790000438690186,245.0,0.9998999834060669,0.000699999975040555,-0.005100000184029341,0.00019999999494757503,-0.003599999938160181,-0.006000000052154064,4.900199890136719,-0.061000000685453415,-0.061000000685453415,0.0,-0.00039999998989515007,0.010200000368058681,0.0013000000035390258,-0.00039999998989515007,0.010200000368058681,-0.0013000000035390258,0.010200000368058681,0.0013000000035390258,0.9998000264167786,34.85940170288086
2.2829999923706055,246.0,0.9998999834060669,0.000699999975040555,-0.005100000184029341,0.00019999999494757503,-0.003599999938160181,-0.006000000052154064,4.900199890136719,-0.061000000685453415,-0.061000000685453415,0.0,-0.00039999998989515007,0.010200000368058681,0.0013000000035390258,-0.00039999998989515007,0.010200000368058681,-0.0013000000035390258,0.010200000368058681,0.0013000000035390258,0.9998000264167786,34.85940170288086
2.302000045776367,247.0,0.9998999834060669,0.000699999975040555,-0.005100000184029341,0.00019999999494757503,-0.003000000026077032,-0.006000000052154064,4.895400047302246,-0.061000000685453415,-0.061000000685453415,-0.061000000685453415,-0.00039999998989515007,0.010200000368058681,0.0013000000035390258,-0.00039999998989515007,0.010200000368058681,-0.0013000000035390258,0.010200000368058681,0.0013000000035390258,0.9998000264167786,34.847599029541016
2.311000108718872,248.0,0.9998999834060669,0.000699999975040555,-0.005100000184029341,0.00019999999494757503,-0.003599999938160181,-0.006599999964237213,4.89300012588501,-0.061000000685453415,-0.061000000685453415,0.0,-0.00039999998989515007,0.010200000368058681,0.0013000000035390258,-0.00039999998989515007,0.010200000368058681,-0.0013000000035390258,0.010200000368058681,0.0013000000035390258,0.9998000264167786,34.83000183105469
2.319999933242798,249.0,0.9998999834060669,0.000699999975040555,-0.005100000184029341,0.00019999999494757503,-0.00419999985024333,-0.003000000026077032,4.893599987030029,-0.061000000685453415,-0.061000000685453415,0.0,-0.00039999998989515007,0.010200000368058681,0.0013000000035390258,-0.00039999998989515007,0.010200000368058681,-0.0013000000035390258,0.010200000368058681,0.0013000000035390258,0.9998000264167786,34.841800689697266
2.3239998817443848,250.0,0.9998999834060669,0.000699999975040555,-0.005100000184029341,0.00019999999494757503,-0.00419999985024333,-0.003000000026077032,4.893599987030029,-0.061000000685453415,-0.061000000685453415,0.0,-0.00039999998989515007,0.010200000368058681,0.0013000000035390258,-0.00039999998989515007,0.010200000368058681,-0.0013000000035390258,0.010200000368058681,0.0013000000035390258,0.9998000264167786,34.841800689697266
2.3399999141693115,251.0,0.9998999834060669,0.0006000000284984708,-0.005100000184029341,0.00019999999494757503,-0.003599999938160181,-0.006599999964237213,4.894199848175049,-0.061000000685453415,-0.061000000685453415,0.0,-0.0005000000237487257,0.010200000368058681,0.0012000000569969416,-0.0005000000237487257,0.010200000368058681,-0.0012000000569969416,0.010200000368058681,0.0012000000569969416,0.9998000264167786,34.824100494384766
2.3440001010894775,252.0,0.9998999834060669,0.0006000000284984708,-0.005100000184029341,0.00019999999494757503,-0.003599999938160181,-0.006599999964237213,4.894199848175049,-0.061000000685453415,-0.061000000685453415,0.0,-0.0005000000237487257,0.010200000368058681,0.0012000000569969416,-0.0005000000237487257,0.010200000368058681,-0.0012000000569969416,0.010200000368058681,0.0012000000569969416,0.9998000264167786,34.824100494384766
2.361999988555908,253.0,0.9998999834060669,0.0006000000284984708,-0.005200000014156103,0.00019999999494757503,-0.003000000026077032,-0.00839999970048666,4.893599987030029,-0.061000000685453415,-0.061000000685453415,-0.061000000685453415,-0.0005000000237487257,0.010400000028312206,0.0012000000569969416,-0.0005000000237487257,0.010400000028312206,-0.0012000000569969416,0.010400000028312206,0.0012000000569969416,0.9998000264167786,34.85350036621094
2.369999885559082,254.0,0.9998999834060669,0.0006000000284984708,-0.005200000014156103,0.00019999999494757503,-0.004800000227987766,-0.004800000227987766,4.894199848175049,-0.061000000685453415,-0.061000000685453415,-0.061000000685453415,-0.00039999998989515007,0.010400000028312206,0.0012000000569969416,-0.00039999998989515007,0.010400000028312206,-0.0012000000569969416,0.010400000028312206,0.0012000000569969416,0.9998000264167786,34.85350036621094
2.372999906539917,255.0,0.9998999834060669,0.0006000000284984708,-0.005200000014156103,0.00019999999494757503,-0.004800000227987766,-0.004800000227987766,4.894199848175049,-0.061000000685453415,-0.061000000685453415,-0.061000000685453415,-0.00039999998989515007,0.010400000028312206,0.0012000000569969416,-0.00039999998989515007,0.010400000028312206,-0.0012000000569969416,0.010400000028312206,0.0012000000569969416,0.9998000264167786,34.85350036621094
2.3919999599456787,256.0,0.9998999834060669,0.0006000000284984708,-0.005200000014156103,0.00019999999494757503,-0.006599999964237213,-0.0006000000284984708,4.893599987030029,-0.061000000685453415,-0.061000000685453415,0.0,-0.00039999998989515007,0.010400000028312206,0.0012000000569969416,-0.00039999998989515007,0.010400000028312206,-0.0012000000569969416,0.010400000028312206,0.0012000000569969416,0.9998000264167786,34.847599029541016
2.4010000228881836,257.0,0.9998999834060669,0.0006000000284984708,-0.005200000014156103,0.00019999999494757503,-0.006000000052154064,0.0,4.892399787902832,0.0,-0.061000000685453415,0.0,-0.0005000000237487257,0.010400000028312206,0.0012000000569969416,-0.0005000000237487257,0.010400000028312206,-0.0012000000569969416,0.010400000028312206,0.0012000000569969416,0.9998000264167786,34.85350036621094
2.4100000858306885,258.0,0.9998999834060669,0.0006000000284984708,-0.005200000014156103,0.00019999999494757503,-0.0006000000284984708,-0.0017999999690800905,4.892399787902832,0.0,-0.061000000685453415,0.0,-0.0005000000237487257,0.010400000028312206,0.0012000000569969416,-0.0005000000237487257,0.010400000028312206,-0.0012000000569969416,0.010400000028312206,0.0012000000569969416,0.9998000264167786,34.85940170288086
2.4140000343322754,259.0,0.9998999834060669,0.0006000000284984708,-0.005200000014156103,0.00019999999494757503,-0.0006000000284984708,-0.0017999999690800905,4.892399787902832,0.0,-0.061000000685453415,0.0,-0.0005000000237487257,0.010400000028312206,0.0012000000569969416,-0.0005000000237487257,0.010400000028312206,-0.0012000000569969416,0.010400000028312206,0.0012000000569969416,0.9998000264167786,34.85940170288086
2.431999921798706,260.0,0.9998999834060669,0.0006000000284984708,-0.005200000014156103,0.00019999999494757503,0.0017999999690800905,0.003599999938160181,4.892399787902832,-0.061000000685453415,-0.061000000685453415,0.0,-0.0005000000237487257,0.010499999858438969,0.0012000000569969416,-0.0005000000237487257,0.010499999858438969,-0.0012000000569969416,0.010499999858438969,0.0012000000569969416,0.9998000264167786,34.847599029541016
2.440000057220459,261.0,0.9998999834060669,0.0006000000284984708,-0.005200000014156103,0.00019999999494757503,0.0,-0.0006000000284984708,4.89900016784668,-0.061000000685453415,-0.061000000685453415,-0.061000000685453415,-0.00039999998989515007,0.010499999858438969,0.0012000000569969416,-0.00039999998989515007,0.010499999858438969,-0.0012000000569969416,0.010499999858438969,0.0012000000569969416,0.9998000264167786,34.841800689697266
2.444000005722046,262.0,0.9998999834060669,0.0006000000284984708,-0.005200000014156103,0.00019999999494757503,0.0,-0.0006000000284984708,4.89900016784668,-0.061000000685453415,-0.061000000685453415,-0.061000000685453415,-0.00039999998989515007,0.010499999858438969,0.0012000000569969416,-0.00039999998989515007,0.010499999858438969,-0.0012000000569969416,0.010499999858438969,0.0012000000569969416,0.9998000264167786,34.841800689697266
2.4619998931884766,263.0,0.9998999834060669,0.0006000000284984708,-0.005200000014156103,0.00019999999494757503,0.0017999999690800905,-0.0012000000569969416,4.901400089263916,-0.061000000685453415,-0.061000000685453415,0.0,-0.00039999998989515007,0.010499999858438969,0.0012000000569969416,-0.00039999998989515007,0.010499999858438969,-0.0012000000569969416,0.010499999858438969,0.0012000000569969416,0.9998000264167786,34.818199157714844
2.4700000286102295,264.0,0.9998999834060669,0.0006000000284984708,-0.005200000014156103,0.00019999999494757503,0.0,0.0,4.89900016784668,0.0,-0.061000000685453415,0.0,-0.0005000000237487257,0.010499999858438969,0.0012000000569969416,-0.0005000000237487257,0.010499999858438969,-0.0012000000569969416,0.010499999858438969,0.0012000000569969416,0.9998000264167786,34.835899353027344
2.4739999771118164,265.0,0.9998999834060669,0.0006000000284984708,-0.005200000014156103,0.00019999999494757503,0.0,0.0,4.89900016784668,0.0,-0.061000000685453415,0.0,-0.0005000000237487257,0.010499999858438969,0.0012000000569969416,-0.0005000000237487257,0.010499999858438969,-0.0012000000569969416,0.010499999858438969,0.0012000000569969416,0.9998000264167786,34.835899353027344
2.492000102996826,266.0,0.9998999834060669,0.0006000000284984708,-0.005200000014156103,0.00019999999494757503,-0.002400000113993883,-0.0012000000569969416,4.898399829864502,-0.061000000685453415,-0.061000000685453415,0.0,-0.0005000000237487257,0.010499999858438969,0.0012000000569969416,-0.0005000000237487257,0.010499999858438969,-0.0012000000569969416,0.010499999858438969,0.0012000000569969416,0.9998000264167786,34.85350036621094
2.500999927520752,267.0,0.9998999834060669,0.0006000000284984708,-0.0052999998442828655,0.00019999999494757503,0.0006000000284984708,-0.0012000000569969416,4.902599811553955,-0.061000000685453415,-0.061000000685453415,0.0,-0.0005000000237487257,0.010599999688565731,0.0012000000569969416,-0.0005000000237487257,0.010599999688565731,-0.0012000000569969416,0.010599999688565731,0.0012000000569969416,0.9998000264167786,34.83000183105469
2.505000114440918,268.0,0.9998999834060669,0.0006000000284984708,-0.0052999998442828655,0.00019999999494757503,0.0006000000284984708,-0.0012000000569969416,4.902599811553955,-0.061000000685453415,-0.061000000685453415,0.0,-0.0005000000237487257,0.010599999688565731,0.0012000000569969416,-0.0005000000237487257,0.010599999688565731,-0.0012000000569969416,0.010599999688565731,0.0012000000569969416,0.9998000264167786,34.83000183105469
2.5209999084472656,269.0,0.9998999834060669,0.0006000000284984708,-0.0052999998442828655,0.00019999999494757503,0.003599999938160181,-0.002400000113993883,4.903200149536133,0.0,-0.061000000685453415,0.0,-0.0005000000237487257,0.010599999688565731,0.0010999999940395355,-0.0005000000237487257,0.010599999688565731,-0.0010999999940395355,0.010599999688565731,0.0010999999940395355,0.9998000264167786,34.835899353027344
2.5290000438690186,270.0,0.9998999834060669,0.0006000000284984708,-0.0052999998442828655,0.00019999999494757503,0.0006000000284984708,-0.003000000026077032,4.899600028991699,-0.061000000685453415,-0.061000000685453415,-0.061000000685453415,-0.0005000000237487257,0.010599999688565731,0.0010999999940395355,-0.0005000000237487257,0.010599999688565731,-0.0010999999940395355,0.010599999688565731,0.0010999999940395355,0.9998000264167786,34.841800689697266
2.5329999923706055,271.0,0.9998999834060669,0.0006000000284984708,-0.0052999998442828655,0.00019999999494757503,0.0006000000284984708,-0.003000000026077032,4.899600028991699,-0.061000000685453415,-0.061000000685453415,-0.061000000685453415,-0.0005000000237487257,0.010599999688565731,0.0010999999940395355,-0.0005000000237487257,0.010599999688565731,-0.0010999999940395355,0.010599999688565731,0.0010999999940395355,0.9998000264167786,34.841800689697266
2.5460000038146973,272.0,0.9998999834060669,0.0006000000284984708,-0.0052999998442828655,0.00019999999494757503,0.0006000000284984708,-0.003000000026077032,4.899600028991699,-0.061000000685453415,-0.061000000685453415,-0.061000000685453415,-0.0005000000237487257,0.010599999688565731,0.0010999999940395355,-0.0005000000237487257,0.010599999688565731,-0.0010999999940395355,0.010599999688565731,0.0010999999940395355,0.9998000264167786,34.841800689697266
2.553999900817871,273.0,0.9998999834060669,0.0006000000284984708,-0.0052999998442828655,0.00019999999494757503,-0.0017999999690800905,-0.00419999985024333,4.897799968719482,-0.061000000685453415,-0.061000000685453415,0.0,-0.0005000000237487257,0.010599999688565731,0.0010999999940395355,-0.0005000000237487257,0.010599999688565731,-0.0010999999940395355,0.010599999688565731,0.0010999999940395355,0.9998000264167786,34.847599029541016
2.562999963760376,274.0,0.9998999834060669,0.0006000000284984708,-0.0052999998442828655,0.00019999999494757503,-0.0012000000569969416,-0.002400000113993883,4.898399829864502,-0.061000000685453415,-0.061000000685453415,0.0,-0.0005000000237487257,0.010599999688565731,0.0010999999940395355,-0.0005000000237487257,0.010599999688565731,-0.0010999999940395355,0.010599999688565731,0.0010999999940395355,0.9998000264167786,34.835899353027344
2.566999912261963,275.0,0.9998999834060669,0.0006000000284984708,-0.0052999998442828655,0.00019999999494757503,-0.0012000000569969416,-0.002400000113993883,4.898399829864502,-0.061000000685453415,-0.061000000685453415,0.0,-0.0005000000237487257,0.010599999688565731,0.0010999999940395355,-0.0005000000237487257,0.010599999688565731,-0.0010999999940395355,0.010599999688565731,0.0010999999940395355,0.9998000264167786,34.835899353027344
2.5799999237060547,276.0,0.9998999834060669,0.0006000000284984708,-0.0052999998442828655,0.00019999999494757503,-0.002400000113993883,-0.0012000000569969416,4.900199890136719,-0.061000000685453415,-0.061000000685453415,0.0,-0.0005000000237487257,0.010599999688565731,0.0010999999940395355,-0.0005000000237487257,0.010599999688565731,-0.0010999999940395355,0.010599999688565731,0.0010999999940395355,0.9998000264167786,34.865299224853516
2.5840001106262207,277.0,0.9998999834060669,0.0006000000284984708,-0.0052999998442828655,0.00019999999494757503,-0.002400000113993883,-0.0012000000569969416,4.900199890136719,-0.061000000685453415,-0.061000000685453415,0.0,-0.0005000000237487257,0.010599999688565731,0.0010999999940395355,-0.0005000000237487257,0.010599999688565731,-0.0010999999940395355,0.010599999688565731,0.0010999999940395355,0.9998000264167786,34.865299224853516
2.6019999980926514,278.0,0.9998999834060669,0.0006000000284984708,-0.0052999998442828655,0.00019999999494757503,-0.003000000026077032,-0.0017999999690800905,4.899600028991699,-0.061000000685453415,-0.061000000685453415,0.0,-0.0005000000237487257,0.010599999688565731,0.0010999999940395355,-0.0005000000237487257,0.010599999688565731,-0.0010999999940395355,0.010599999688565731,0.0010999999940395355,0.9998000264167786,34.835899353027344
2.6110000610351562,279.0,0.9998999834060669,0.0006000000284984708,-0.005400000140070915,0.00019999999494757503,0.0012000000569969416,-0.006000000052154064,4.898399829864502,0.0,-0.061000000685453415,0.0,-0.0005000000237487257,0.010700000450015068,0.0010999999940395355,-0.0005000000237487257,0.010700000450015068,-0.0010999999940395355,0.010700000450015068,0.0010999999940395355,0.9998000264167786,34.841800689697266
2.61899995803833,280.0,0.9998999834060669,0.0005000000237487257,-0.005400000140070915,0.00019999999494757503,0.0006000000284984708,-0.003599999938160181,4.895999908447266,-0.061000000685453415,-0.061000000685453415,0.0,-0.0005000000237487257,0.010700000450015068,0.0010000000474974513,-0.0005000000237487257,0.010700000450015068,-0.0010000000474974513,0.010700000450015068,0.0010000000474974513,0.9998000264167786,34.835899353027344
2.622999906539917,281.0,0.9998999834060669,0.0005000000237487257,-0.005400000140070915,0.00019999999494757503,0.0006000000284984708,-0.003599999938160181,4.895999908447266,-0.061000000685453415,-0.061000000685453415,0.0,-0.0005000000237487257,0.010700000450015068,0.0010000000474974513,-0.0005000000237487257,0.010700000450015068,-0.0010000000474974513,0.010700000450015068,0.0010000000474974513,0.9998000264167786,34.835899353027344
2.635999917984009,282.0,0.9998999834060669,0.0005000000237487257,-0.005400000140070915,0.00019999999494757503,0.0006000000284984708,-0.003599999938160181,4.895999908447266,-0.061000000685453415,-0.061000000685453415,0.0,-0.0005000000237487257,0.010700000450015068,0.0010000000474974513,-0.0005000000237487257,0.010700000450015068,-0.0010000000474974513,0.010700000450015068,0.0010000000474974513,0.9998000264167786,34.835899353027344
2.6449999809265137,283.0,0.9998999834060669,0.0005000000237487257,-0.005400000140070915,0.00019999999494757503,-0.0006000000284984708,-0.005400000140070915,4.896599769592285,-0.061000000685453415,-0.061000000685453415,0.0,-0.0005000000237487257,0.010700000450015068,0.0010000000474974513,-0.0005000000237487257,0.010700000450015068,-0.0010000000474974513,0.010700000450015068,0.0010000000474974513,0.9998000264167786,34.835899353027344
2.6530001163482666,284.0,0.9998999834060669,0.0005000000237487257,-0.005400000140070915,0.00019999999494757503,-0.00419999985024333,-0.003599999938160181,4.894800186157227,0.0,-0.061000000685453415,0.0,-0.0005000000237487257,0.010700000450015068,0.0010000000474974513,-0.0005000000237487257,0.010700000450015068,-0.0010000000474974513,0.010700000450015068,0.0010000000474974513,0.9998000264167786,34.824100494384766
2.6570000648498535,285.0,0.9998999834060669,0.0005000000237487257,-0.005400000140070915,0.00019999999494757503,-0.00419999985024333,-0.003599999938160181,4.894800186157227,0.0,-0.061000000685453415,0.0,-0.0005000000237487257,0.010700000450015068,0.0010000000474974513,-0.0005000000237487257,0.010700000450015068,-0.0010000000474974513,0.010700000450015068,0.0010000000474974513,0.9998000264167786,34.824100494384766
2.671999931335449,286.0,0.9998999834060669,0.0005000000237487257,-0.005400000140070915,0.00019999999494757503,-0.005400000140070915,-0.003599999938160181,4.896599769592285,0.0,-0.061000000685453415,-0.061000000685453415,-0.0005000000237487257,0.010700000450015068,0.0010000000474974513,-0.0005000000237487257,0.010700000450015068,-0.0010000000474974513,0.010700000450015068,0.0010000000474974513,0.9998000264167786,34.835899353027344
2.680999994277954,287.0,0.9998999834060669,0.0005000000237487257,-0.005400000140070915,0.00019999999494757503,-0.007199999876320362,-0.003599999938160181,4.89900016784668,0.0,-0.061000000685453415,0.0,-0.0005000000237487257,0.010700000450015068,0.0010000000474974513,-0.0005000000237487257,0.010700000450015068,-0.0010000000474974513,0.010700000450015068,0.0010000000474974513,0.9998000264167786,34.847599029541016
2.683000087738037,288.0,0.9998999834060669,0.0005000000237487257,-0.005400000140070915,0.00019999999494757503,-0.007199999876320362,-0.003599999938160181,4.89900016784668,0.0,-0.061000000685453415,0.0,-0.0005000000237487257,0.010700000450015068,0.0010000000474974513,-0.0005000000237487257,0.010700000450015068,-0.0010000000474974513,0.010700000450015068,0.0010000000474974513,0.9998000264167786,34.847599029541016
2.7019999027252197,289.0,0.9998999834060669,0.0005000000237487257,-0.005400000140070915,0.00019999999494757503,-0.006000000052154064,-0.003599999938160181,4.898399829864502,0.0,-0.061000000685453415,0.0,-0.0005000000237487257,0.010700000450015068,0.0010000000474974513,-0.0005000000237487257,0.010700000450015068,-0.0010000000474974513,0.010700000450015068,0.0010000000474974513,0.9998000264167786,34.83000183105469
2.7109999656677246,290.0,0.9998999834060669,0.0005000000237487257,-0.005400000140070915,0.00019999999494757503,-0.006599999964237213,-0.00419999985024333,4.89900016784668,0.0,-0.061000000685453415,0.0,-0.0005000000237487257,0.010900000110268593,0.0010000000474974513,-0.0005000000237487257,0.010900000110268593,-0.0010000000474974513,0.010900000110268593,0.0010000000474974513,0.9998000264167786,34.841800689697266
2.7149999141693115,291.0,0.9998999834060669,0.0005000000237487257,-0.005400000140070915,0.00019999999494757503,-0.006599999964237213,-0.00419999985024333,4.89900016784668,0.0,-0.061000000685453415,0.0,-0.0005000000237487257,0.010900000110268593,0.0010000000474974513,-0.0005000000237487257,0.010900000110268593,-0.0010000000474974513,0.010900000110268593,0.0010000000474974513,0.9998000264167786,34.841800689697266
2.7269999980926514,292.0,0.9998999834060669,0.0005000000237487257,-0.005400000140070915,0.00019999999494757503,-0.005400000140070915,-0.003000000026077032,4.902599811553955,-0.061000000685453415,-0.061000000685453415,0.0,-0.0005000000237487257,0.010900000110268593,0.0010000000474974513,-0.0005000000237487257,0.010900000110268593,-0.0010000000474974513,0.010900000110268593,0.0010000000474974513,0.9998000264167786,34.83000183105469
2.7309999465942383,293.0,0.9998999834060669,0.0005000000237487257,-0.005400000140070915,0.00019999999494757503,-0.005400000140070915,-0.003000000026077032,4.902599811553955,-0.061000000685453415,-0.061000000685453415,0.0,-0.0005000000237487257,0.010900000110268593,0.0010000000474974513,-0.0005000000237487257,0.010900000110268593,-0.0010000000474974513,0.010900000110268593,0.0010000000474974513,0.9998000264167786,34.83000183105469
2.742000102996826,294.0,0.9998999834060669,0.0005000000237487257,-0.005400000140070915,0.00019999999494757503,0.0006000000284984708,-0.0012000000569969416,4.9019999504089355,-0.061000000685453415,-0.061000000685453415,0.0,-0.0005000000237487257,0.010900000110268593,0.0010000000474974513,-0.0005000000237487257,0.010900000110268593,-0.0010000000474974513,0.010900000110268593,0.0010000000474974513,0.9998000264167786,34.85350036621094
2.746000051498413,295.0,0.9998999834060669,0.0005000000237487257,-0.005400000140070915,0.00019999999494757503,0.0006000000284984708,-0.0012000000569969416,4.9019999504089355,-0.061000000685453415,-0.061000000685453415,0.0,-0.0005000000237487257,0.010900000110268593,0.0010000000474974513,-0.0005000000237487257,0.010900000110268593,-0.0010000000474974513,0.010900000110268593,0.0010000000474974513,0.9998000264167786,34.85350036621094
2.76200008392334,296.0,0.9998999834060669,0.0005000000237487257,-0.005400000140070915,0.00019999999494757503,0.0,-0.0006000000284984708,4.900199890136719,0.0,-0.061000000685453415,0.0,-0.0005000000237487257,0.010900000110268593,0.0010000000474974513,-0.0005000000237487257,0.010900000110268593,-0.0010000000474974513,0.010900000110268593,0.0010000000474974513,0.9998000264167786,34.818199157714844
2.7699999809265137,297.0,0.9998999834060669,0.0005000000237487257,-0.005400000140070915,0.00019999999494757503,0.0012000000569969416,-0.0006000000284984708,4.9019999504089355,0.0,-0.061000000685453415,-0.061000000685453415,-0.0005000000237487257,0.010900000110268593,0.0010000000474974513,-0.0005000000237487257,0.010900000110268593,-0.0010000000474974513,0.010900000110268593,0.0010000000474974513,0.9998000264167786,34.818199157714844
2.7739999294281006,298.0,0.9998999834060669,0.0005000000237487257,-0.005400000140070915,0.00019999999494757503,0.0012000000569969416,-0.0006000000284984708,4.9019999504089355,0.0,-0.061000000685453415,-0.061000000685453415,-0.0005000000237487257,0.010900000110268593,0.0010000000474974513,-0.0005000000237487257,0.010900000110268593,-0.0010000000474974513,0.010900000110268593,0.0010000000474974513,0.9998000264167786,34.818199157714844
2.7920000553131104,299.0,0.9998999834060669,0.00039999998989515007,-0.005499999970197678,0.00019999999494757503,0.0017999999690800905,-0.003599999938160181,4.899600028991699,-0.061000000685453415,-0.061000000685453415,-0.061000000685453415,-0.0005000000237487257,0.010999999940395355,0.0007999999797903001,-0.0005000000237487257,0.010999999940395355,-0.0008999999845400453,0.010999999940395355,0.0007999999797903001,0.9998000264167786,34.841800689697266
2.799999952316284,300.0,0.9998999834060669,0.00039999998989515007,-0.005499999970197678,0.00019999999494757503,0.0012000000569969416,-0.0006000000284984708,4.896599769592285,0.0,-0.061000000685453415,0.0,-0.0005000000237487257,0.010999999940395355,0.0007999999797903001,-0.0005000000237487257,0.010999999940395355,-0.0008999999845400453,0.010999999940395355,0.0007999999797903001,0.9998000264167786,34.835899353027344
2.803999900817871,301.0,0.9998999834060669,0.00039999998989515007,-0.005499999970197678,0.00019999999494757503,0.0012000000569969416,-0.0006000000284984708,4.896599769592285,0.0,-0.061000000685453415,0.0,-0.0005000000237487257,0.010999999940395355,0.0007999999797903001,-0.0005000000237487257,0.010999999940395355,-0.0008999999845400453,0.010999999940395355,0.0007999999797903001,0.9998000264167786,34.835899353027344
2.822000026702881,302.0,0.9998999834060669,0.00039999998989515007,-0.005499999970197678,0.00019999999494757503,0.0012000000569969416,-0.0006000000284984708,4.89900016784668,-0.061000000685453415,-0.061000000685453415,0.0,-0.0005000000237487257,0.010999999940395355,0.0007999999797903001,-0.0005000000237487257,0.010999999940395355,-0.0008999999845400453,0.010999999940395355,0.0007999999797903001,0.9998000264167786,34.835899353027344
2.8299999237060547,303.0,0.9998999834060669,0.00039999998989515007,-0.005499999970197678,0.00019999999494757503,0.0012000000569969416,-0.003000000026077032,4.9008002281188965,0.0,-0.061000000685453415,0.0,-0.0005000000237487257,0.010999999940395355,0.0007999999797903001,-0.0005000000237487257,0.010999999940395355,-0.0008999999845400453,0.010999999940395355,0.0007999999797903001,0.9998000264167786,34.847599029541016
2.8340001106262207,304.0,0.9998999834060669,0.00039999998989515007,-0.005499999970197678,0.00019999999494757503,0.0012000000569969416,-0.003000000026077032,4.9008002281188965,0.0,-0.061000000685453415,0.0,-0.0005000000237487257,0.010999999940395355,0.0007999999797903001,-0.0005000000237487257,0.010999999940395355,-0.0008999999845400453,0.010999999940395355,0.0007999999797903001,0.9998000264167786,34.847599029541016
2.8469998836517334,305.0,0.9998999834060669,0.00039999998989515007,-0.005499999970197678,0.00019999999494757503,-0.0017999999690800905,-0.003000000026077032,4.903200149536133,-0.061000000685453415,-0.061000000685453415,0.0,-0.0005000000237487257,0.010999999940395355,0.0007999999797903001,-0.0005000000237487257,0.010999999940395355,-0.0008999999845400453,0.010999999940395355,0.0007999999797903001,0.9998000264167786,34.85350036621094
2.8510000705718994,306.0,0.9998999834060669,0.00039999998989515007,-0.005499999970197678,0.00019999999494757503,-0.0017999999690800905,-0.003000000026077032,4.903200149536133,-0.061000000685453415,-0.061000000685453415,0.0,-0.0005000000237487257,0.010999999940395355,0.0007999999797903001,-0.0005000000237487257,0.010999999940395355,-0.0008999999845400453,0.010999999940395355,0.0007999999797903001,0.9998000264167786,34.85350036621094
2.871999979019165,307.0,0.9998999834060669,0.00039999998989515007,-0.005499999970197678,0.0003000000142492354,0.002400000113993883,-0.003599999938160181,4.903200149536133,-0.061000000685453415,-0.061000000685453415,0.0,-0.0006000000284984708,0.010999999940395355,0.0007999999797903001,-0.0006000000284984708,0.010999999940395355,-0.0008999999845400453,0.010999999940395355,0.0007999999797903001,0.9998000264167786,34.85350036621094
2.88100004196167,308.0,0.9998999834060669,0.00039999998989515007,-0.00559999980032444,0.00019999999494757503,0.00419999985024333,-0.004800000227987766,4.90500020980835,-0.061000000685453415,-0.061000000685453415,0.0,-0.0005000000237487257,0.011099999770522118,0.0007999999797903001,-0.0005000000237487257,0.011099999770522118,-0.0008999999845400453,0.011099999770522118,0.0007999999797903001,0.9998000264167786,34.85940170288086
2.8889999389648438,309.0,0.9998999834060669,0.00039999998989515007,-0.00559999980032444,0.00019999999494757503,0.00419999985024333,-0.0012000000569969416,4.90500020980835,-0.061000000685453415,-0.061000000685453415,0.0,-0.0005000000237487257,0.011099999770522118,0.0007999999797903001,-0.0005000000237487257,0.011099999770522118,-0.0008999999845400453,0.011099999770522118,0.0007999999797903001,0.9998000264167786,34.847599029541016
2.8929998874664307,310.0,0.9998999834060669,0.00039999998989515007,-0.00559999980032444,0.00019999999494757503,0.00419999985024333,-0.0012000000569969416,4.90500020980835,-0.061000000685453415,-0.061000000685453415,0.0,-0.0005000000237487257,0.011099999770522118,0.0007999999797903001,-0.0005000000237487257,0.011099999770522118,-0.0008999999845400453,0.011099999770522118,0.0007999999797903001,0.9998000264167786,34.847599029541016
2.9059998989105225,311.0,0.9998999834060669,0.00039999998989515007,-0.00559999980032444,0.00019999999494757503,0.00419999985024333,-0.0012000000569969416,4.90500020980835,-0.061000000685453415,-0.061000000685453415,0.0,-0.0005000000237487257,0.011099999770522118,0.0007999999797903001,-0.0005000000237487257,0.011099999770522118,-0.0008999999845400453,0.011099999770522118,0.0007999999797903001,0.9998000264167786,34.847599029541016
2.9140000343322754,312.0,0.9998999834060669,0.00039999998989515007,-0.00559999980032444,0.00019999999494757503,0.0017999999690800905,-0.003000000026077032,4.901400089263916,-0.061000000685453415,-0.061000000685453415,0.0,-0.0005000000237487257,0.011099999770522118,0.0007999999797903001,-0.0005000000237487257,0.011099999770522118,-0.0008999999845400453,0.011099999770522118,0.0007999999797903001,0.9998000264167786,34.847599029541016
2.921999931335449,313.0,0.9998999834060669,0.00039999998989515007,-0.00559999980032444,0.00019999999494757503,-0.0012000000569969416,-0.003000000026077032,4.9019999504089355,-0.061000000685453415,-0.061000000685453415,0.0,-0.0005000000237487257,0.011099999770522118,0.000699999975040555,-0.0005000000237487257,0.011099999770522118,-0.000699999975040555,0.011099999770522118,0.000699999975040555,0.9998000264167786,34.85940170288086
2.9260001182556152,314.0,0.9998999834060669,0.00039999998989515007,-0.00559999980032444,0.00019999999494757503,-0.0012000000569969416,-0.003000000026077032,4.9019999504089355,-0.061000000685453415,-0.061000000685453415,0.0,-0.0005000000237487257,0.011099999770522118,0.000699999975040555,-0.0005000000237487257,0.011099999770522118,-0.000699999975040555,0.011099999770522118,0.000699999975040555,0.9998000264167786,34.85940170288086
2.941999912261963,315.0,0.9998999834060669,0.00039999998989515007,-0.00559999980032444,0.00019999999494757503,-0.003599999938160181,-0.005400000140070915,4.903200149536133,0.0,-0.061000000685453415,0.0,-0.0005000000237487257,0.011099999770522118,0.000699999975040555,-0.0005000000237487257,0.011099999770522118,-0.000699999975040555,0.011099999770522118,0.000699999975040555,0.9998000264167786,34.847599029541016
2.9509999752044678,316.0,0.9998999834060669,0.00039999998989515007,-0.00559999980032444,0.0003000000142492354,-0.003000000026077032,-0.004800000227987766,4.9019999504089355,-0.061000000685453415,-0.061000000685453415,0.0,-0.0006000000284984708,0.011099999770522118,0.000699999975040555,-0.0006000000284984708,0.011099999770522118,-0.000699999975040555,0.011099999770522118,0.000699999975040555,0.9998000264167786,34.847599029541016
2.953000068664551,317.0,0.9998999834060669,0.00039999998989515007,-0.00559999980032444,0.0003000000142492354,-0.003000000026077032,-0.004800000227987766,4.9019999504089355,-0.061000000685453415,-0.061000000685453415,0.0,-0.0006000000284984708,0.011099999770522118,0.000699999975040555,-0.0006000000284984708,0.011099999770522118,-0.000699999975040555,0.011099999770522118,0.000699999975040555,0.9998000264167786,34.847599029541016
2.9719998836517334,318.0,0.9998999834060669,0.00039999998989515007,-0.00559999980032444,0.0003000000142492354,-0.002400000113993883,-0.002400000113993883,4.900199890136719,-0.061000000685453415,-0.061000000685453415,0.0,-0.0006000000284984708,0.011099999770522118,0.000699999975040555,-0.0006000000284984708,0.011099999770522118,-0.000699999975040555,0.011099999770522118,0.000699999975040555,0.9998000264167786,34.85350036621094
2.9809999465942383,319.0,0.9998999834060669,0.00039999998989515007,-0.00559999980032444,0.0003000000142492354,-0.003000000026077032,-0.00419999985024333,4.899600028991699,0.0,-0.061000000685453415,-0.061000000685453415,-0.0006000000284984708,0.011099999770522118,0.000699999975040555,-0.0006000000284984708,0.011099999770522118,-0.000699999975040555,0.011099999770522118,0.000699999975040555,0.9998000264167786,34.865299224853516
2.9830000400543213,320.0,0.9998999834060669,0.00039999998989515007,-0.00559999980032444,0.0003000000142492354,-0.003000000026077032,-0.00419999985024333,4.899600028991699,0.0,-0.061000000685453415,-0.061000000685453415,-0.0006000000284984708,0.011099999770522118,0.000699999975040555,-0.0006000000284984708,0.011099999770522118,-0.000699999975040555,0.011099999770522118,0.000699999975040555,0.9998000264167786,34.865299224853516
2.989000082015991,321.0,0.9998999834060669,0.00039999998989515007,-0.00559999980032444,0.0003000000142492354,-0.003000000026077032,-0.00419999985024333,4.899600028991699,0.0,-0.061000000685453415,-0.061000000685453415,-0.0006000000284984708,0.011099999770522118,0.000699999975040555,-0.0006000000284984708,0.011099999770522118,-0.000699999975040555,0.011099999770522118,0.000699999975040555,0.9998000264167786,34.865299224853516
2.999000072479248,322.0,0.9998999834060669,0.00039999998989515007,-0.00559999980032444,0.00019999999494757503,-0.0006000000284984708,-0.006599999964237213,4.896599769592285,0.0,-0.061000000685453415,0.0,-0.0005000000237487257,0.011099999770522118,0.000699999975040555,-0.0005000000237487257,0.011099999770522118,-0.000699999975040555,0.011099999770522118,0.000699999975040555,0.9998000264167786,34.841800689697266
3.002000093460083,323.0,0.9998999834060669,0.00039999998989515007,-0.00559999980032444,0.00019999999494757503,-0.0006000000284984708,-0.006599999964237213,4.896599769592285,0.0,-0.061000000685453415,0.0,-0.0005000000237487257,0.011099999770522118,0.000699999975040555,-0.0005000000237487257,0.011099999770522118,-0.000699999975040555,0.011099999770522118,0.000699999975040555,0.9998000264167786,34.841800689697266
3.0139999389648438,324.0,0.9998999834060669,0.0003000000142492354,-0.00559999980032444,0.00019999999494757503,-0.0012000000569969416,-0.01140000019222498,4.895999908447266,-0.061000000685453415,-0.061000000685453415,-0.061000000685453415,-0.0005000000237487257,0.011099999770522118,0.0006000000284984708,-0.0005000000237487257,0.011099999770522118,-0.0006000000284984708,0.011099999770522118,0.0006000000284984708,0.9998000264167786,34.85940170288086
3.0179998874664307,325.0,0.9998999834060669,0.0003000000142492354,-0.00559999980032444,0.00019999999494757503,-0.0012000000569969416,-0.01140000019222498,4.895999908447266,-0.061000000685453415,-0.061000000685453415,-0.061000000685453415,-0.0005000000237487257,0.011099999770522118,0.0006000000284984708,-0.0005000000237487257,0.011099999770522118,-0.0006000000284984708,0.011099999770522118,0.0006000000284984708,0.9998000264167786,34.85940170288086
3.0280001163482666,326.0,0.9998999834060669,0.0003000000142492354,-0.00559999980032444,0.00019999999494757503,-0.0017999999690800905,-0.009600000455975533,4.897799968719482,0.0,-0.061000000685453415,0.0,-0.0005000000237487257,0.01119999960064888,0.0006000000284984708,-0.0005000000237487257,0.01119999960064888,-0.0006000000284984708,0.01119999960064888,0.0006000000284984708,0.9998000264167786,34.85350036621094
3.0320000648498535,327.0,0.9998999834060669,0.0003000000142492354,-0.00559999980032444,0.00019999999494757503,-0.0017999999690800905,-0.009600000455975533,4.897799968719482,0.0,-0.061000000685453415,0.0,-0.0005000000237487257,0.01119999960064888,0.0006000000284984708,-0.0005000000237487257,0.01119999960064888,-0.0006000000284984708,0.01119999960064888,0.0006000000284984708,0.9998000264167786,34.85350036621094
3.052000045776367,328.0,0.9998999834060669,0.0003000000142492354,-0.00559999980032444,0.0003000000142492354,-0.002400000113993883,-0.010200000368058681,4.898399829864502,-0.061000000685453415,-0.061000000685453415,0.0,-0.0006000000284984708,0.01119999960064888,0.0006000000284984708,-0.0006000000284984708,0.01119999960064888,-0.0006000000284984708,0.01119999960064888,0.0006000000284984708,0.9998000264167786,34.85350036621094
3.059999942779541,329.0,0.9998999834060669,0.0003000000142492354,-0.00559999980032444,0.0003000000142492354,-0.005400000140070915,-0.00839999970048666,4.900199890136719,-0.061000000685453415,-0.061000000685453415,0.0,-0.0006000000284984708,0.01119999960064888,0.0006000000284984708,-0.0006000000284984708,0.01119999960064888,-0.0006000000284984708,0.01119999960064888,0.0006000000284984708,0.9998000264167786,34.847599029541016
3.063999891281128,330.0,0.9998999834060669,0.0003000000142492354,-0.00559999980032444,0.0003000000142492354,-0.005400000140070915,-0.00839999970048666,4.900199890136719,-0.061000000685453415,-0.061000000685453415,0.0,-0.0006000000284984708,0.01119999960064888,0.0006000000284984708,-0.0006000000284984708,0.01119999960064888,-0.0006000000284984708,0.01119999960064888,0.0006000000284984708,0.9998000264167786,34.847599029541016
3.075000047683716,331.0,0.9998999834060669,0.0003000000142492354,-0.00559999980032444,0.0003000000142492354,-0.00419999985024333,-0.00419999985024333,4.9019999504089355,-0.061000000685453415,-0.061000000685453415,0.0,-0.0006000000284984708,0.01119999960064888,0.0006000000284984708,-0.0006000000284984708,0.01119999960064888,-0.0006000000284984708,0.01119999960064888,0.0006000000284984708,0.9998000264167786,34.835899353027344
3.078000068664551,332.0,0.9998999834060669,0.0003000000142492354,-0.00559999980032444,0.0003000000142492354,-0.00419999985024333,-0.00419999985024333,4.9019999504089355,-0.061000000685453415,-0.061000000685453415,0.0,-0.0006000000284984708,0.01119999960064888,0.0006000000284984708,-0.0006000000284984708,0.01119999960064888,-0.0006000000284984708,0.01119999960064888,0.0006000000284984708,0.9998000264167786,34.835899353027344
3.0889999866485596,333.0,0.9998999834060669,0.0003000000142492354,-0.00559999980032444,0.0003000000142492354,0.0,-0.003000000026077032,4.90500020980835,-0.061000000685453415,-0.061000000685453415,0.0,-0.0006000000284984708,0.01119999960064888,0.0006000000284984708,-0.0006000000284984708,0.01119999960064888,-0.0006000000284984708,0.01119999960064888,0.0006000000284984708,0.9998000264167786,34.85350036621094
3.0929999351501465,334.0,0.9998999834060669,0.0003000000142492354,-0.00559999980032444,0.0003000000142492354,0.0,-0.003000000026077032,4.90500020980835,-0.061000000685453415,-0.061000000685453415,0.0,-0.0006000000284984708,0.01119999960064888,0.0006000000284984708,-0.0006000000284984708,0.01119999960064888,-0.0006000000284984708,0.01119999960064888,0.0006000000284984708,0.9998000264167786,34.85350036621094
3.111999988555908,335.0,0.9998999834060669,0.0003000000142492354,-0.00559999980032444,0.0003000000142492354,-0.0006000000284984708,-0.006000000052154064,4.90500020980835,-0.061000000685453415,-0.061000000685453415,0.0,-0.0006000000284984708,0.01119999960064888,0.0006000000284984708,-0.0006000000284984708,0.01119999960064888,-0.0006000000284984708,0.01119999960064888,0.0006000000284984708,0.9998000264167786,34.865299224853516
3.119999885559082,336.0,0.9998999834060669,0.00019999999494757503,-0.00559999980032444,0.0003000000142492354,0.003599999938160181,-0.004800000227987766,4.906199932098389,-0.061000000685453415,-0.061000000685453415,0.0,-0.0006000000284984708,0.01119999960064888,0.0005000000237487257,-0.0006000000284984708,0.01119999960064888,-0.0005000000237487257,0.01119999960064888,0.0005000000237487257,0.9998000264167786,34.85350036621094
3.122999906539917,337.0,0.9998999834060669,0.00019999999494757503,-0.00559999980032444,0.0003000000142492354,0.003599999938160181,-0.004800000227987766,4.906199932098389,-0.061000000685453415,-0.061000000685453415,0.0,-0.0006000000284984708,0.01119999960064888,0.0005000000237487257,-0.0006000000284984708,0.01119999960064888,-0.0005000000237487257,0.01119999960064888,0.0005000000237487257,0.9998000264167786,34.85350036621094
3.135999917984009,338.0,0.9998999834060669,0.00019999999494757503,-0.00570000009611249,0.0003000000142492354,0.00419999985024333,-0.0012000000569969416,4.906799793243408,-0.061000000685453415,-0.061000000685453415,0.0,-0.0006000000284984708,0.01140000019222498,0.0005000000237487257,-0.0006000000284984708,0.01140000019222498,-0.0005000000237487257,0.01140000019222498,0.0005000000237487257,0.9998000264167786,34.85350036621094
3.140000104904175,339.0,0.9998999834060669,0.00019999999494757503,-0.00570000009611249,0.0003000000142492354,0.00419999985024333,-0.0012000000569969416,4.906799793243408,-0.061000000685453415,-0.061000000685453415,0.0,-0.0006000000284984708,0.01140000019222498,0.0005000000237487257,-0.0006000000284984708,0.01140000019222498,-0.0005000000237487257,0.01140000019222498,0.0005000000237487257,0.9998000264167786,34.85350036621094
3.1619999408721924,340.0,0.9998999834060669,0.00019999999494757503,-0.00570000009611249,0.0003000000142492354,0.0017999999690800905,-0.005400000140070915,4.907400131225586,-0.061000000685453415,-0.061000000685453415,0.0,-0.0006000000284984708,0.01140000019222498,0.0005000000237487257,-0.0006000000284984708,0.01140000019222498,-0.0005000000237487257,0.01140000019222498,0.0005000000237487257,0.9998000264167786,34.847599029541016
3.1659998893737793,341.0,0.9998999834060669,0.00019999999494757503,-0.00570000009611249,0.0003000000142492354,0.0017999999690800905,-0.005400000140070915,4.907400131225586,-0.061000000685453415,-0.061000000685453415,0.0,-0.0006000000284984708,0.01140000019222498,0.0005000000237487257,-0.0006000000284984708,0.01140000019222498,-0.0005000000237487257,0.01140000019222498,0.0005000000237487257,0.9998000264167786,34.847599029541016
3.177000045776367,342.0,0.9998999834060669,0.00019999999494757503,-0.00570000009611249,0.0003000000142492354,0.003000000026077032,-0.005400000140070915,4.90500020980835,-0.061000000685453415,-0.061000000685453415,0.0,-0.0006000000284984708,0.01140000019222498,0.0005000000237487257,-0.0006000000284984708,0.01140000019222498,-0.0005000000237487257,0.01140000019222498,0.0005000000237487257,0.9998000264167786,34.85940170288086
3.180999994277954,343.0,0.9998999834060669,0.00019999999494757503,-0.00570000009611249,0.0003000000142492354,0.003000000026077032,-0.005400000140070915,4.90500020980835,-0.061000000685453415,-0.061000000685453415,0.0,-0.0006000000284984708,0.01140000019222498,0.0005000000237487257,-0.0006000000284984708,0.01140000019222498,-0.0005000000237487257,0.01140000019222498,0.0005000000237487257,0.9998000264167786,34.85940170288086
3.190999984741211,344.0,0.9998999834060669,0.00019999999494757503,-0.00570000009611249,0.0003000000142492354,0.0006000000284984708,-0.004800000227987766,4.9008002281188965,-0.061000000685453415,-0.061000000685453415,0.0,-0.0006000000284984708,0.01140000019222498,0.0005000000237487257,-0.0006000000284984708,0.01140000019222498,-0.0005000000237487257,0.01140000019222498,0.0005000000237487257,0.9998000264167786,34.85940170288086
3.194999933242798,345.0,0.9998999834060669,0.00019999999494757503,-0.00570000009611249,0.0003000000142492354,0.0006000000284984708,-0.004800000227987766,4.9008002281188965,-0.061000000685453415,-0.061000000685453415,0.0,-0.0006000000284984708,0.01140000019222498,0.0005000000237487257,-0.0006000000284984708,0.01140000019222498,-0.0005000000237487257,0.01140000019222498,0.0005000000237487257,0.9998000264167786,34.85940170288086
3.2860000133514404,354.0,0.9998999834060669,0.00019999999494757503,-0.00570000009611249,0.0003000000142492354,-0.0006000000284984708,-0.00419999985024333,4.906199932098389,0.0,-0.061000000685453415,0.0,-0.0006000000284984708,0.011500000022351742,0.0005000000237487257,-0.0006000000284984708,0.011500000022351742,-0.0005000000237487257,0.011500000022351742,0.0005000000237487257,0.9998000264167786,34.85350036621094
3.2899999618530273,355.0,0.9998999834060669,0.00019999999494757503,-0.00570000009611249,0.0003000000142492354,-0.0006000000284984708,-0.00419999985024333,4.906199932098389,0.0,-0.061000000685453415,0.0,-0.0006000000284984708,0.011500000022351742,0.0005000000237487257,-0.0006000000284984708,0.011500000022351742,-0.0005000000237487257,0.011500000022351742,0.0005000000237487257,0.9998000264167786,34.85350036621094
3.312000036239624,356.0,0.9998999834060669,0.00019999999494757503,-0.00570000009611249,0.00039999998989515007,-0.003599999938160181,-0.005400000140070915,4.9019999504089355,-0.061000000685453415,-0.061000000685453415,0.0,-0.000699999975040555,0.011500000022351742,0.00039999998989515007,-0.000699999975040555,0.011500000022351742,-0.00039999998989515007,0.011500000022351742,0.00039999998989515007,0.9998000264167786,34.85940170288086
