Time,Count,Quat W,Quat X,Quat Y,Quat Z,Accel X (g),Accel Y (g),Accel Z (g),Gyro X (dps),Gyro Y (dps),Gyro Z (dps),Yaw,Pitch,Roll,X,Y,Z,Grav X,Grav Y,Grav Z,Temp

 0.05400000140070915,6.0,0.9998999834060669,0.003800000064074993,-0.00019999999494757503,-9.999999747378752e-05,0.002400000113993883,-0.0006000000284984708,3.856600046157837,-0.061000000685453415,-0.061000000685453415,0.0,9.9999997473

 0.06599999964237213,7.0,0.9998999834060669,0.003700000001117587,-0.00019999999494757503,0.0,0.004800000227987766,-0.003000000026077032,4.239200115203857,0.0,-0.061000000685453415,0.0,-0.0,0.0005000000237487257,0.007400000002235174,-0.0

 0.07000000029802322,8.0,0.9998999834060669,0.003700000001117587,-0.00019999999494757503,0.0,0.004800000227987766,-0.003000000026077032,4.239200115203857,0.0,-0.061000000685453415,0.0,-0.0,0.0005000000237487257,0.007400000002235174,-0.0,

 0.08299999684095383,9.0,0.9998999834060669,0.003700000001117587,-0.0003000000142492354,0.0,0.0006000000284984708,-0.006000000052154064,4.485300064086914,0.0,-0.061000000685453415,0.0,-0.0,0.0006000000284984708,0.007300000172108412,-0

 0.08500000089406967,10.0,0.9998999834060669,0.003700000001117587,-0.0003000000142492354,0.0,0.0006000000284984708,-0.006000000052154064,4.485300064086914,0.0,-0.061000000685453415,0.0,-0.0,0.0006000000284984708,0.007300000172108412,-0

 0.10199999809265137,11.0,0.9998999834060669,0.003599999938160181,-0.00039999998989515007,0.0,-0.0006000000284984708,-0.004800000227987766,4.633200168609619,-0.061000000685453415,-0.061000000685453415,0.0,-0.0,0.000699999975040555,0.00

 0.10999999940395355,12.0,0.9998999834060669,0.003599999938160181,-0.00039999998989515007,0.0,0.0,-0.00419999985024333,4.732600212097168,-0.061000000685453415,-0.061000000685453415,0.0,-0.0,0.0007999999797903001,0.007199999876320362,

 0.13199999928474426,14.0,0.9998999834060669,0.0035000001080334187,-0.0005000000237487257,0.0,0.003000000026077032,-0.003000000026077032,4.7941999435424805,0.0,-0.061000000685453415,0.0,-0.0,0.0010000000474974513,0.0071000000461936,-0

 0.14000000059604645,15.0,0.9998999834060669,0.0035000001080334187,-0.0006000000284984708,0.0,-0.0006000000284984708,-0.003000000026077032,4.829599857330322,-0.061000000685453415,-0.061000000685453415,0.0,-0.0,0.0012000000569969416,0.

Time,Count,Quat W,Quat X,Quat Y,Quat Z,Accel X (g),Accel Y (g),Accel Z (g),Gyro X (dps),Gyro Y (dps),Gyro Z (dps),Yaw,Pitch,Roll,X,Y,Z,Grav X,Grav Y,Grav Z,Temp

 0.05400000140070915,6.0,0.9998999834060669,0.003800000064074993,-0.00019999999494757503,-9.999999747378752e-05,0.002400000113993883,-0.0006000000284984708,3.856600046157837,-0.061000000685453415,-0.061000000685453415,0.0,9.9999997473

 0.06599999964237213,7.0,0.9998999834060669,0.003700000001117587,-0.00019999999494757503,0.0,0.004800000227987766,-0.003000000026077032,4.239200115203857,0.0,-0.061000000685453415,0.0,-0.0,0.0005000000237487257,0.007400000002235174,-0.0

 0.07000000029802322,8.0,0.9998999834060669,0.003700000001117587,-0.00019999999494757503,0.0,0.004800000227987766,-0.003000000026077032,4.239200115203857,0.0,-0.061000000685453415,0.0,-0.0,0.0005000000237487257,0.007400000002235174,-0.0,

 0.08299999684095383,9.0,0.9998999834060669,0.003700000001117587,-0.0003000000142492354,0.0,0.0006000000284984708,-0.006000000052154064,4.485300064086914,0.0,-0.061000000685453415,0.0,-0.0,0.0006000000284984708,0.007300000172108412,-0

 0.08500000089406967,10.0,0.9998999834060669,0.003700000001117587,-0.0003000000142492354,0.0,0.0006000000284984708,-0.006000000052154064,4.485300064086914,0.0,-0.061000000685453415,0.0,-0.0,0.0006000000284984708,0.007300000172108412,-0

 0.10199999809265137,11.0,0.9998999834060669,0.003599999938160181,-0.00039999998989515007,0.0,-0.0006000000284984708,-0.004800000227987766,4.633200168609619,-0.061000000685453415,-0.061000000685453415,0.0,-0.0,0.000699999975040555,0.00

 0.10999999940395355,12.0,0.9998999834060669,0.003599999938160181,-0.00039999998989515007,0.0,0.0,-0.00419999985024333,4.732600212097168,-0.061000000685453415,-0.061000000685453415,0.0,-0.0,0.0007999999797903001,0.007199999876320362,

 0.13199999928474426,14.0,0.9998999834060669,0.0035000001080334187,-0.0005000000237487257,0.0,0.003000000026077032,-0.003000000026077032,4.7941999435424805,0.0,-0.061000000685453415,0.0,-0.0,0.0010000000474974513,0.0071000000461936,-0

 0.14000000059604645,15.0,0.9998999834060669,0.0035000001080334187,-0.0006000000284984708,0.0,-0.0006000000284984708,-0.003000000026077032,4.829599857330322,-0.061000000685453415,-0.061000000685453415,0.0,-0.0,0.0012000000569969416,0.

 0.14399999380111694,16.0,0.9998999834060669,0.0035000001080334187,-0.0006000000284984708,0.0,-0.0006000000284984708,-0.003000000026077032,4.829599857330322,-0.061000000685453415,-0.061000000685453415,0.0,-0.0,0.0012000000569969416,0.00

 0.15600000321865082,17.0,0.9998999834060669,0.0035000001080334187,-0.0006000000284984708,0.0,-0.0006000000284984708,-0.003000000026077032,4.829599857330322,-0.061000000685453415,-0.061000000685453415,0.0,-0.0,0.0012000000569969416,0.00

 0.164000004529953,18.0,0.9998999834060669,0.0034000000450760126,-0.0006000000284984708,0.0,0.0,-0.006000000052154064,4.85830020904541,-0.061000000685453415,-0.061000000685453415,0.0,-0.0,0.0012000000569969416,0.006800000090152025,-0

 0.17299999296665192,19.0,0.9998999834060669,0.0034000000450760126,-0.000699999975040555,0.0,-0.003000000026077032,-0.005400000140070915,4.869699954986572,-0.061000000685453415,-0.061000000685453415,0.0,-0.0,0.0013000000035390258,0.00

 0.17499999701976776,20.0,0.9998999834060669,0.0034000000450760126,-0.000699999975040555,0.0,-0.003000000026077032,-0.005400000140070915,4.869699954986572,-0.061000000685453415,-0.061000000685453415,0.0,-0.0,0.0013000000035390258,0.006

 0.18799999356269836,21.0,0.9998999834060669,0.0034000000450760126,-0.000699999975040555,0.0,-0.00419999985024333,-0.005400000140070915,4.879799842834473,0.0,-0.061000000685453415,-0.061000000685453415,-0.0,0.001500000013038516,0.006699

 0.19200000166893005,22.0,0.9998999834060669,0.0034000000450760126,-0.000699999975040555,0.0,-0.00419999985024333,-0.005400000140070915,4.879799842834473,0.0,-0.061000000685453415,-0.061000000685453415,-0.0,0.001500000013038516,0.0066999

 0.21199999749660492,23.0,0.9998999834060669,0.0032999999821186066,-0.0007999999797903001,0.0,-0.005400000140070915,-0.006000000052154064,4.889999866485596,0.0,-0.061000000685453415,0.0,-0.0,0.0015999999595806003,0.006599999964237213,

 0.22100000083446503,24.0,0.9998999834060669,0.0032999999821186066,-0.0007999999797903001,0.0,-0.007199999876320362,-0.00419999985024333,4.896599769592285,-0.061000000685453415,-0.061000000685453415,0.0,-0.0,0.0017000000225380063,0.00

 0.22499999403953552,25.0,0.9998999834060669,0.0032999999821186066,-0.0007999999797903001,0.0,-0.007199999876320362,-0.00419999985024333,4.896599769592285,-0.061000000685453415,-0.061000000685453415,0.0,-0.0,0.0017000000225380063,0.0065

Time,Count,Quat W,Quat X,Quat Y,Quat Z,Accel X (g),Accel Y (g),Accel Z (g),Gyro X (dps),Gyro Y (dps),Gyro Z (dps),Yaw,Pitch,Roll,X,Y,Z,Grav X,Grav Y,Grav Z,Temp

 0.05400000140070915,6.0,0.9998999834060669,0.003800000064074993,-0.00019999999494757503,-9.999999747378752e-05,0.002400000113993883,-0.0006000000284984708,3.856600046157837,-0.061000000685453415,-0.061000000685453415,0.0,9.9999997473

 0.06599999964237213,7.0,0.9998999834060669,0.003700000001117587,-0.00019999999494757503,0.0,0.004800000227987766,-0.003000000026077032,4.239200115203857,0.0,-0.061000000685453415,0.0,-0.0,0.0005000000237487257,0.007400000002235174,-0.0

 0.07000000029802322,8.0,0.9998999834060669,0.003700000001117587,-0.00019999999494757503,0.0,0.004800000227987766,-0.003000000026077032,4.239200115203857,0.0,-0.061000000685453415,0.0,-0.0,0.0005000000237487257,0.007400000002235174,-0.0,

 0.08299999684095383,9.0,0.9998999834060669,0.003700000001117587,-0.0003000000142492354,0.0,0.0006000000284984708,-0.006000000052154064,4.485300064086914,0.0,-0.061000000685453415,0.0,-0.0,0.0006000000284984708,0.007300000172108412,-0

 0.08500000089406967,10.0,0.9998999834060669,0.003700000001117587,-0.0003000000142492354,0.0,0.0006000000284984708,-0.006000000052154064,4.485300064086914,0.0,-0.061000000685453415,0.0,-0.0,0.0006000000284984708,0.007300000172108412,-0

 0.10199999809265137,11.0,0.9998999834060669,0.003599999938160181,-0.00039999998989515007,0.0,-0.0006000000284984708,-0.004800000227987766,4.633200168609619,-0.061000000685453415,-0.061000000685453415,0.0,-0.0,0.000699999975040555,0.00

 0.10999999940395355,12.0,0.9998999834060669,0.003599999938160181,-0.00039999998989515007,0.0,0.0,-0.00419999985024333,4.732600212097168,-0.061000000685453415,-0.061000000685453415,0.0,-0.0,0.0007999999797903001,0.007199999876320362,

 0.13199999928474426,14.0,0.9998999834060669,0.0035000001080334187,-0.0005000000237487257,0.0,0.003000000026077032,-0.003000000026077032,4.7941999435424805,0.0,-0.061000000685453415,0.0,-0.0,0.0010000000474974513,0.0071000000461936,-0

 0.14000000059604645,15.0,0.9998999834060669,0.0035000001080334187,-0.0006000000284984708,0.0,-0.0006000000284984708,-0.003000000026077032,4.829599857330322,-0.061000000685453415,-0.061000000685453415,0.0,-0.0,0.0012000000569969416,0.

 0.14399999380111694,16.0,0.9998999834060669,0.0035000001080334187,-0.0006000000284984708,0.0,-0.0006000000284984708,-0.003000000026077032,4.829599857330322,-0.061000000685453415,-0.061000000685453415,0.0,-0.0,0.0012000000569969416,0.00

 0.15600000321865082,17.0,0.9998999834060669,0.0035000001080334187,-0.0006000000284984708,0.0,-0.0006000000284984708,-0.003000000026077032,4.829599857330322,-0.061000000685453415,-0.061000000685453415,0.0,-0.0,0.0012000000569969416,0.00

 0.164000004529953,18.0,0.9998999834060669,0.0034000000450760126,-0.0006000000284984708,0.0,0.0,-0.006000000052154064,4.85830020904541,-0.061000000685453415,-0.061000000685453415,0.0,-0.0,0.0012000000569969416,0.006800000090152025,-0

 0.17299999296665192,19.0,0.9998999834060669,0.0034000000450760126,-0.000699999975040555,0.0,-0.003000000026077032,-0.005400000140070915,4.869699954986572,-0.061000000685453415,-0.061000000685453415,0.0,-0.0,0.0013000000035390258,0.00

 0.17499999701976776,20.0,0.9998999834060669,0.0034000000450760126,-0.000699999975040555,0.0,-0.003000000026077032,-0.005400000140070915,4.869699954986572,-0.061000000685453415,-0.061000000685453415,0.0,-0.0,0.0013000000035390258,0.006

 0.18799999356269836,21.0,0.9998999834060669,0.0034000000450760126,-0.000699999975040555,0.0,-0.00419999985024333,-0.005400000140070915,4.879799842834473,0.0,-0.061000000685453415,-0.061000000685453415,-0.0,0.001500000013038516,0.006699

 0.19200000166893005,22.0,0.9998999834060669,0.0034000000450760126,-0.000699999975040555,0.0,-0.00419999985024333,-0.005400000140070915,4.879799842834473,0.0,-0.061000000685453415,-0.061000000685453415,-0.0,0.001500000013038516,0.0066999

 0.21199999749660492,23.0,0.9998999834060669,0.0032999999821186066,-0.0007999999797903001,0.0,-0.005400000140070915,-0.006000000052154064,4.889999866485596,0.0,-0.061000000685453415,0.0,-0.0,0.0015999999595806003,0.006599999964237213,

 0.22100000083446503,24.0,0.9998999834060669,0.0032999999821186066,-0.0007999999797903001,0.0,-0.007199999876320362,-0.00419999985024333,4.896599769592285,-0.061000000685453415,-0.061000000685453415,0.0,-0.0,0.0017000000225380063,0.00

 0.22499999403953552,25.0,0.9998999834060669,0.0032999999821186066,-0.0007999999797903001,0.0,-0.007199999876320362,-0.00419999985024333,4.896599769592285,-0.061000000685453415,-0.061000000685453415,0.0,-0.0,0.0017000000225380063,0.0065

 Time,Count,Quat W,Quat X,Quat Y,Quat Z,Accel X (g),Accel Y (g),Accel Z (g),Gyro X (dps),Gyro Y (dps),Gyro Z (dps),Yaw,Pitch,Roll,X,Y,Z,Grav X,Grav Y,Grav Z,Temp

 0.05400000140070915,6.0,0.9998999834060669,0.003800000064074993,-0.00019999999494757503,-9.999999747378752e-05,0.002400000113993883,-0.0006000000284984708,3.856600046157837,-0.061000000685453415,-0.061000000685453415,0.0,9.9999997473

 0.06599999964237213,7.0,0.9998999834060669,0.003700000001117587,-0.00019999999494757503,0.0,0.004800000227987766,-0.003000000026077032,4.239200115203857,0.0,-0.061000000685453415,0.0,-0.0,0.0005000000237487257,0.007400000002235174,-0.0

 0.07000000029802322,8.0,0.9998999834060669,0.003700000001117587,-0.00019999999494757503,0.0,0.004800000227987766,-0.003000000026077032,4.239200115203857,0.0,-0.061000000685453415,0.0,-0.0,0.0005000000237487257,0.007400000002235174,-0.0,

 0.08299999684095383,9.0,0.9998999834060669,0.003700000001117587,-0.0003000000142492354,0.0,0.0006000000284984708,-0.006000000052154064,4.485300064086914,0.0,-0.061000000685453415,0.0,-0.0,0.0006000000284984708,0.007300000172108412,-0

 0.08500000089406967,10.0,0.9998999834060669,0.003700000001117587,-0.0003000000142492354,0.0,0.0006000000284984708,-0.006000000052154064,4.485300064086914,0.0,-0.061000000685453415,0.0,-0.0,0.0006000000284984708,0.007300000172108412,-0

 0.10199999809265137,11.0,0.9998999834060669,0.003599999938160181,-0.00039999998989515007,0.0,-0.0006000000284984708,-0.004800000227987766,4.633200168609619,-0.061000000685453415,-0.061000000685453415,0.0,-0.0,0.000699999975040555,0.00

 0.10999999940395355,12.0,0.9998999834060669,0.003599999938160181,-0.00039999998989515007,0.0,0.0,-0.00419999985024333,4.732600212097168,-0.061000000685453415,-0.061000000685453415,0.0,-0.0,0.0007999999797903001,0.007199999876320362,

 0.13199999928474426,14.0,0.9998999834060669,0.0035000001080334187,-0.0005000000237487257,0.0,0.003000000026077032,-0.003000000026077032,4.7941999435424805,0.0,-0.061000000685453415,0.0,-0.0,0.0010000000474974513,0.0071000000461936,-0

 0.14000000059604645,15.0,0.9998999834060669,0.0035000001080334187,-0.0006000000284984708,0.0,-0.0006000000284984708,-0.003000000026077032,4.829599857330322,-0.061000000685453415,-0.061000000685453415,0.0,-0.0,0.0012000000569969416,0.

Time,Count,Quat W,Quat X,Quat Y,Quat Z,Accel X (g),Accel Y (g),Accel Z (g),Gyro X (dps),Gyro Y (dps),Gyro Z (dps),Yaw,Pitch,Roll,X,Y,Z,Grav X,Grav Y,Grav Z,Temp

 0.05400000140070915,6.0,0.9998999834060669,0.003800000064074993,-0.00019999999494757503,-9.999999747378752e-05,0.002400000113993883,-0.0006000000284984708,3.856600046157837,-0.061000000685453415,-0.061000000685453415,0.0,9.9999997473

 0.06599999964237213,7.0,0.9998999834060669,0.003700000001117587,-0.00019999999494757503,0.0,0.004800000227987766,-0.003000000026077032,4.239200115203857,0.0,-0.061000000685453415,0.0,-0.0,0.0005000000237487257,0.007400000002235174,-0.0

 0.07000000029802322,8.0,0.9998999834060669,0.003700000001117587,-0.00019999999494757503,0.0,0.004800000227987766,-0.003000000026077032,4.239200115203857,0.0,-0.061000000685453415,0.0,-0.0,0.0005000000237487257,0.007400000002235174,-0.0,

 0.08299999684095383,9.0,0.9998999834060669,0.003700000001117587,-0.0003000000142492354,0.0,0.0006000000284984708,-0.006000000052154064,4.485300064086914,0.0,-0.061000000685453415,0.0,-0.0,0.0006000000284984708,0.007300000172108412,-0

 0.08500000089406967,10.0,0.9998999834060669,0.003700000001117587,-0.0003000000142492354,0.0,0.0006000000284984708,-0.006000000052154064,4.485300064086914,0.0,-0.061000000685453415,0.0,-0.0,0.0006000000284984708,0.007300000172108412,-0

 0.10199999809265137,11.0,0.9998999834060669,0.003599999938160181,-0.00039999998989515007,0.0,-0.0006000000284984708,-0.004800000227987766,4.633200168609619,-0.061000000685453415,-0.061000000685453415,0.0,-0.0,0.000699999975040555,0.00

 0.10999999940395355,12.0,0.9998999834060669,0.003599999938160181,-0.00039999998989515007,0.0,0.0,-0.00419999985024333,4.732600212097168,-0.061000000685453415,-0.061000000685453415,0.0,-0.0,0.0007999999797903001,0.007199999876320362,

 0.13199999928474426,14.0,0.9998999834060669,0.0035000001080334187,-0.0005000000237487257,0.0,0.003000000026077032,-0.003000000026077032,4.7941999435424805,0.0,-0.061000000685453415,0.0,-0.0,0.0010000000474974513,0.0071000000461936,-0

 0.14000000059604645,15.0,0.9998999834060669,0.0035000001080334187,-0.0006000000284984708,0.0,-0.0006000000284984708,-0.003000000026077032,4.829599857330322,-0.061000000685453415,-0.061000000685453415,0.0,-0.0,0.0012000000569969416,0.

 0.14399999380111694,16.0,0.9998999834060669,0.0035000001080334187,-0.0006000000284984708,0.0,-0.0006000000284984708,-0.003000000026077032,4.829599857330322,-0.061000000685453415,-0.061000000685453415,0.0,-0.0,0.0012000000569969416,0.00

 0.15600000321865082,17.0,0.9998999834060669,0.0035000001080334187,-0.0006000000284984708,0.0,-0.0006000000284984708,-0.003000000026077032,4.829599857330322,-0.061000000685453415,-0.061000000685453415,0.0,-0.0,0.0012000000569969416,0.00

 0.164000004529953,18.0,0.9998999834060669,0.0034000000450760126,-0.0006000000284984708,0.0,0.0,-0.006000000052154064,4.85830020904541,-0.061000000685453415,-0.061000000685453415,0.0,-0.0,0.0012000000569969416,0.006800000090152025,-0

 0.17299999296665192,19.0,0.9998999834060669,0.0034000000450760126,-0.000699999975040555,0.0,-0.003000000026077032,-0.005400000140070915,4.869699954986572,-0.061000000685453415,-0.061000000685453415,0.0,-0.0,0.0013000000035390258,0.00

 0.17499999701976776,20.0,0.9998999834060669,0.0034000000450760126,-0.000699999975040555,0.0,-0.003000000026077032,-0.005400000140070915,4.869699954986572,-0.061000000685453415,-0.061000000685453415,0.0,-0.0,0.0013000000035390258,0.006

 0.18799999356269836,21.0,0.9998999834060669,0.0034000000450760126,-0.000699999975040555,0.0,-0.00419999985024333,-0.005400000140070915,4.879799842834473,0.0,-0.061000000685453415,-0.061000000685453415,-0.0,0.001500000013038516,0.006699

 0.19200000166893005,22.0,0.9998999834060669,0.0034000000450760126,-0.000699999975040555,0.0,-0.00419999985024333,-0.005400000140070915,4.879799842834473,0.0,-0.061000000685453415,-0.061000000685453415,-0.0,0.001500000013038516,0.0066999

 0.21199999749660492,23.0,0.9998999834060669,0.0032999999821186066,-0.0007999999797903001,0.0,-0.005400000140070915,-0.006000000052154064,4.889999866485596,0.0,-0.061000000685453415,0.0,-0.0,0.0015999999595806003,0.006599999964237213,

 0.22100000083446503,24.0,0.9998999834060669,0.0032999999821186066,-0.0007999999797903001,0.0,-0.007199999876320362,-0.00419999985024333,4.896599769592285,-0.061000000685453415,-0.061000000685453415,0.0,-0.0,0.0017000000225380063,0.00

 0.22499999403953552,25.0,0.9998999834060669,0.0032999999821186066,-0.0007999999797903001,0.0,-0.007199999876320362,-0.00419999985024333,4.896599769592285,-0.061000000685453415,-0.061000000685453415,0.0,-0.0,0.0017000000225380063,0.0065

 Time,Count,Quat W,Quat X,Quat Y,Quat Z,Accel X (g),Accel Y (g),Accel Z (g),Gyro X (dps),Gyro Y (dps),Gyro Z (dps),Yaw,Pitch,Roll,X,Y,Z,Grav X,Grav Y,Grav Z,Temp

 0.05400000140070915,6.0,0.9998999834060669,0.003800000064074993,-0.00019999999494757503,-9.999999747378752e-05,0.002400000113993883,-0.0006000000284984708,3.856600046157837,-0.061000000685453415,-0.061000000685453415,0.0,9.9999997473

 0.06599999964237213,7.0,0.9998999834060669,0.003700000001117587,-0.00019999999494757503,0.0,0.004800000227987766,-0.003000000026077032,4.239200115203857,0.0,-0.061000000685453415,0.0,-0.0,0.0005000000237487257,0.007400000002235174,-0.0

 0.07000000029802322,8.0,0.9998999834060669,0.003700000001117587,-0.00019999999494757503,0.0,0.004800000227987766,-0.003000000026077032,4.239200115203857,0.0,-0.061000000685453415,0.0,-0.0,0.0005000000237487257,0.007400000002235174,-0.0,

 0.08299999684095383,9.0,0.9998999834060669,0.003700000001117587,-0.0003000000142492354,0.0,0.0006000000284984708,-0.006000000052154064,4.485300064086914,0.0,-0.061000000685453415,0.0,-0.0,0.0006000000284984708,0.007300000172108412,-0

 0.08500000089406967,10.0,0.9998999834060669,0.003700000001117587,-0.0003000000142492354,0.0,0.0006000000284984708,-0.006000000052154064,4.485300064086914,0.0,-0.061000000685453415,0.0,-0.0,0.0006000000284984708,0.007300000172108412,-0

 0.10199999809265137,11.0,0.9998999834060669,0.003599999938160181,-0.00039999998989515007,0.0,-0.0006000000284984708,-0.004800000227987766,4.633200168609619,-0.061000000685453415,-0.061000000685453415,0.0,-0.0,0.000699999975040555,0.00

 0.10999999940395355,12.0,0.9998999834060669,0.003599999938160181,-0.00039999998989515007,0.0,0.0,-0.00419999985024333,4.732600212097168,-0.061000000685453415,-0.061000000685453415,0.0,-0.0,0.0007999999797903001,0.007199999876320362,

 0.13199999928474426,14.0,0.9998999834060669,0.0035000001080334187,-0.0005000000237487257,0.0,0.003000000026077032,-0.003000000026077032,4.7941999435424805,0.0,-0.061000000685453415,0.0,-0.0,0.0010000000474974513,0.0071000000461936,-0

 0.14000000059604645,15.0,0.9998999834060669,0.0035000001080334187,-0.0006000000284984708,0.0,-0.0006000000284984708,-0.003000000026077032,4.829599857330322,-0.061000000685453415,-0.061000000685453415,0.0,-0.0,0.0012000000569969416,0.

 0.14399999380111694,16.0,0.9998999834060669,0.0035000001080334187,-0.0006000000284984708,0.0,-0.0006000000284984708,-0.003000000026077032,4.829599857330322,-0.061000000685453415,-0.061000000685453415,0.0,-0.0,0.0012000000569969416,0.00

 0.15600000321865082,17.0,0.9998999834060669,0.0035000001080334187,-0.0006000000284984708,0.0,-0.0006000000284984708,-0.003000000026077032,4.829599857330322,-0.061000000685453415,-0.061000000685453415,0.0,-0.0,0.0012000000569969416,0.00

 0.164000004529953,18.0,0.9998999834060669,0.0034000000450760126,-0.0006000000284984708,0.0,0.0,-0.006000000052154064,4.85830020904541,-0.061000000685453415,-0.061000000685453415,0.0,-0.0,0.0012000000569969416,0.006800000090152025,-0

 0.17299999296665192,19.0,0.9998999834060669,0.0034000000450760126,-0.000699999975040555,0.0,-0.003000000026077032,-0.005400000140070915,4.869699954986572,-0.061000000685453415,-0.061000000685453415,0.0,-0.0,0.0013000000035390258,0.00

 0.17499999701976776,20.0,0.9998999834060669,0.0034000000450760126,-0.000699999975040555,0.0,-0.003000000026077032,-0.005400000140070915,4.869699954986572,-0.061000000685453415,-0.061000000685453415,0.0,-0.0,0.0013000000035390258,0.006

 0.18799999356269836,21.0,0.9998999834060669,0.0034000000450760126,-0.000699999975040555,0.0,-0.00419999985024333,-0.005400000140070915,4.879799842834473,0.0,-0.061000000685453415,-0.061000000685453415,-0.0,0.001500000013038516,0.006699

 0.19200000166893005,22.0,0.9998999834060669,0.0034000000450760126,-0.000699999975040555,0.0,-0.00419999985024333,-0.005400000140070915,4.879799842834473,0.0,-0.061000000685453415,-0.061000000685453415,-0.0,0.001500000013038516,0.0066999

 0.21199999749660492,23.0,0.9998999834060669,0.0032999999821186066,-0.0007999999797903001,0.0,-0.005400000140070915,-0.006000000052154064,4.889999866485596,0.0,-0.061000000685453415,0.0,-0.0,0.0015999999595806003,0.006599999964237213,

 0.22100000083446503,24.0,0.9998999834060669,0.0032999999821186066,-0.0007999999797903001,0.0,-0.007199999876320362,-0.00419999985024333,4.896599769592285,-0.061000000685453415,-0.061000000685453415,0.0,-0.0,0.0017000000225380063,0.00

 0.22499999403953552,25.0,0.9998999834060669,0.0032999999821186066,-0.0007999999797903001,0.0,-0.007199999876320362,-0.00419999985024333,4.896599769592285,-0.061000000685453415,-0.061000000685453415,0.0,-0.0,0.0017000000225380063,0.0065

03953552,25.0,0.9998999834060669,0.0032999999821186066,-0.0007999999797903001,0.0,-0.007199999876320362,-0.00419999985024333,4.896599769592285,-0.061000000685453415,-0.061000000685453415,0.0,-0.0,0.0017000000225380063,0.0065

 Time,Count,Quat W,Quat X,Quat Y,Quat Z,Accel X (g),Accel Y (g),Accel Z (g),Gyro X (dps),Gyro Y (dps),Gyro Z (dps),Yaw,Pitch,Roll,X,Y,Z,Grav X,Grav Y,Grav Z,Temp

 0.05400000140070915,6.0,0.9998999834060669,0.003800000064074993,-0.00019999999494757503,-9.999999747378752e-05,0.002400000113993883,-0.0006000000284984708,3.856600046157837,-0.061000000685453415,-0.061000000685453415,0.0,9.9999997473

 0.06599999964237213,7.0,0.9998999834060669,0.003700000001117587,-0.00019999999494757503,0.0,0.004800000227987766,-0.003000000026077032,4.239200115203857,0.0,-0.061000000685453415,0.0,-0.0,0.0005000000237487257,0.007400000002235174,-0.0

 0.07000000029802322,8.0,0.9998999834060669,0.003700000001117587,-0.00019999999494757503,0.0,0.004800000227987766,-0.003000000026077032,4.239200115203857,0.0,-0.061000000685453415,0.0,-0.0,0.0005000000237487257,0.007400000002235174,-0.0,

 0.08299999684095383,9.0,0.9998999834060669,0.003700000001117587,-0.0003000000142492354,0.0,0.0006000000284984708,-0.006000000052154064,4.485300064086914,0.0,-0.061000000685453415,0.0,-0.0,0.0006000000284984708,0.007300000172108412,-0

 0.08500000089406967,10.0,0.9998999834060669,0.003700000001117587,-0.0003000000142492354,0.0,0.0006000000284984708,-0.006000000052154064,4.485300064086914,0.0,-0.061000000685453415,0.0,-0.0,0.0006000000284984708,0.007300000172108412,-0

 0.10199999809265137,11.0,0.9998999834060669,0.003599999938160181,-0.00039999998989515007,0.0,-0.0006000000284984708,-0.004800000227987766,4.633200168609619,-0.061000000685453415,-0.061000000685453415,0.0,-0.0,0.000699999975040555,0.00

 0.10999999940395355,12.0,0.9998999834060669,0.003599999938160181,-0.00039999998989515007,0.0,0.0,-0.00419999985024333,4.732600212097168,-0.061000000685453415,-0.061000000685453415,0.0,-0.0,0.0007999999797903001,0.007199999876320362,

 0.13199999928474426,14.0,0.9998999834060669,0.0035000001080334187,-0.0005000000237487257,0.0,0.003000000026077032,-0.003000000026077032,4.7941999435424805,0.0,-0.061000000685453415,0.0,-0.0,0.0010000000474974513,0.0071000000461936,-0

 0.14000000059604645,15.0,0.9998999834060669,0.0035000001080334187,-0.0006000000284984708,0.0,-0.0006000000284984708,-0.003000000026077032,4.829599857330322,-0.061000000685453415,-0.061000000685453415,0.0,-0.0,0.0012000000569969416,0.

 0.14399999380111694,16.0,0.9998999834060669,0.0035000001080334187,-0.0006000000284984708,0.0,-0.0006000000284984708,-0.003000000026077032,4.829599857330322,-0.061000000685453415,-0.061000000685453415,0.0,-0.0,0.0012000000569969416,0.00

 0.15600000321865082,17.0,0.9998999834060669,0.0035000001080334187,-0.0006000000284984708,0.0,-0.0006000000284984708,-0.003000000026077032,4.829599857330322,-0.061000000685453415,-0.061000000685453415,0.0,-0.0,0.0012000000569969416,0.00

 0.164000004529953,18.0,0.9998999834060669,0.0034000000450760126,-0.0006000000284984708,0.0,0.0,-0.006000000052154064,4.85830020904541,-0.061000000685453415,-0.061000000685453415,0.0,-0.0,0.0012000000569969416,0.006800000090152025,-0

 0.17299999296665192,19.0,0.9998999834060669,0.0034000000450760126,-0.000699999975040555,0.0,-0.003000000026077032,-0.005400000140070915,4.869699954986572,-0.061000000685453415,-0.061000000685453415,0.0,-0.0,0.0013000000035390258,0.00

03953552,25.0,0.9998999834060669,0.0032999999821186066,-0.0007999999797903001,0.0,-0.007199999876320362,-0.00419999985024333,4.896599769592285,-0.061000000685453415,-0.061000000685453415,0.0,-0.0,0.0017000000225380063,0.0065

 Time,Count,Quat W,Quat X,Quat Y,Quat Z,Accel X (g),Accel Y (g),Accel Z (g),Gyro X (dps),Gyro Y (dps),Gyro Z (dps),Yaw,Pitch,Roll,X,Y,Z,Grav X,Grav Y,Grav Z,Temp

 0.05400000140070915,6.0,0.9998999834060669,0.003800000064074993,-0.00019999999494757503,-9.999999747378752e-05,0.002400000113993883,-0.0006000000284984708,3.856600046157837,-0.061000000685453415,-0.061000000685453415,0.0,9.9999997473

 0.06599999964237213,7.0,0.9998999834060669,0.003700000001117587,-0.00019999999494757503,0.0,0.004800000227987766,-0.003000000026077032,4.239200115203857,0.0,-0.061000000685453415,0.0,-0.0,0.0005000000237487257,0.007400000002235174,-0.0

 0.07000000029802322,8.0,0.9998999834060669,0.003700000001117587,-0.00019999999494757503,0.0,0.004800000227987766,-0.003000000026077032,4.239200115203857,0.0,-0.061000000685453415,0.0,-0.0,0.0005000000237487257,0.007400000002235174,-0.0,

 0.08299999684095383,9.0,0.9998999834060669,0.003700000001117587,-0.0003000000142492354,0.0,0.0006000000284984708,-0.006000000052154064,4.485300064086914,0.0,-0.061000000685453415,0.0,-0.0,0.0006000000284984708,0.007300000172108412,-0

 0.08500000089406967,10.0,0.9998999834060669,0.003700000001117587,-0.0003000000142492354,0.0,0.0006000000284984708,-0.006000000052154064,4.485300064086914,0.0,-0.061000000685453415,0.0,-0.0,0.0006000000284984708,0.007300000172108412,-0

 0.10199999809265137,11.0,0.9998999834060669,0.003599999938160181,-0.00039999998989515007,0.0,-0.0006000000284984708,-0.004800000227987766,4.633200168609619,-0.061000000685453415,-0.061000000685453415,0.0,-0.0,0.000699999975040555,0.00

 0.10999999940395355,12.0,0.9998999834060669,0.003599999938160181,-0.00039999998989515007,0.0,0.0,-0.00419999985024333,4.732600212097168,-0.061000000685453415,-0.061000000685453415,0.0,-0.0,0.0007999999797903001,0.007199999876320362,

 0.13199999928474426,14.0,0.9998999834060669,0.0035000001080334187,-0.0005000000237487257,0.0,0.003000000026077032,-0.003000000026077032,4.7941999435424805,0.0,-0.061000000685453415,0.0,-0.0,0.0010000000474974513,0.0071000000461936,-0

 0.14000000059604645,15.0,0.9998999834060669,0.0035000001080334187,-0.0006000000284984708,0.0,-0.0006000000284984708,-0.003000000026077032,4.829599857330322,-0.061000000685453415,-0.061000000685453415,0.0,-0.0,0.0012000000569969416,0.

 0.14399999380111694,16.0,0.9998999834060669,0.0035000001080334187,-0.0006000000284984708,0.0,-0.0006000000284984708,-0.003000000026077032,4.829599857330322,-0.061000000685453415,-0.061000000685453415,0.0,-0.0,0.0012000000569969416,0.00

 0.15600000321865082,17.0,0.9998999834060669,0.0035000001080334187,-0.0006000000284984708,0.0,-0.0006000000284984708,-0.003000000026077032,4.829599857330322,-0.061000000685453415,-0.061000000685453415,0.0,-0.0,0.0012000000569969416,0.00

 0.164000004529953,18.0,0.9998999834060669,0.0034000000450760126,-0.0006000000284984708,0.0,0.0,-0.006000000052154064,4.85830020904541,-0.061000000685453415,-0.061000000685453415,0.0,-0.0,0.0012000000569969416,0.006800000090152025,-0

 0.17299999296665192,19.0,0.9998999834060669,0.0034000000450760126,-0.000699999975040555,0.0,-0.003000000026077032,-0.005400000140070915,4.869699954986572,-0.061000000685453415,-0.061000000685453415,0.0,-0.0,0.0013000000035390258,0.00

 0.17499999701976776,20.0,0.9998999834060669,0.0034000000450760126,-0.000699999975040555,0.0,-0.003000000026077032,-0.005400000140070915,4.869699954986572,-0.061000000685453415,-0.061000000685453415,0.0,-0.0,0.0013000000035390258,0.006

 0.18799999356269836,21.0,0.9998999834060669,0.0034000000450760126,-0.000699999975040555,0.0,-0.00419999985024333,-0.005400000140070915,4.879799842834473,0.0,-0.061000000685453415,-0.061000000685453415,-0.0,0.001500000013038516,0.006699

 0.19200000166893005,22.0,0.9998999834060669,0.0034000000450760126,-0.000699999975040555,0.0,-0.00419999985024333,-0.005400000140070915,4.879799842834473,0.0,-0.061000000685453415,-0.061000000685453415,-0.0,0.001500000013038516,0.0066999

 0.21199999749660492,23.0,0.9998999834060669,0.0032999999821186066,-0.0007999999797903001,0.0,-0.005400000140070915,-0.006000000052154064,4.889999866485596,0.0,-0.061000000685453415,0.0,-0.0,0.0015999999595806003,0.006599999964237213,

 0.22100000083446503,24.0,0.9998999834060669,0.0032999999821186066,-0.0007999999797903001,0.0,-0.007199999876320362,-0.00419999985024333,4.896599769592285,-0.061000000685453415,-0.061000000685453415,0.0,-0.0,0.0017000000225380063,0.00

 0.22499999403953552,25.0,0.9998999834060669,0.0032999999821186066,-0.0007999999797903001,0.0,-0.007199999876320362,-0.00419999985024333,4.896599769592285,-0.061000000685453415,-0.061000000685453415,0.0,-0.0,0.0017000000225380063,0.0065

 Time,Count,Quat W,Quat X,Quat Y,Quat Z,Accel X (g),Accel Y (g),Accel Z (g),Gyro X (dps),Gyro Y (dps),Gyro Z (dps),Yaw,Pitch,Roll,X,Y,Z,Grav X,Grav Y,Grav Z,Temp

 0.05400000140070915,6.0,0.9998999834060669,0.003800000064074993,-0.00019999999494757503,-9.999999747378752e-05,0.002400000113993883,-0.0006000000284984708,3.856600046157837,-0.061000000685453415,-0.061000000685453415,0.0,9.9999997473

 0.06599999964237213,7.0,0.9998999834060669,0.003700000001117587,-0.00019999999494757503,0.0,0.004800000227987766,-0.003000000026077032,4.239200115203857,0.0,-0.061000000685453415,0.0,-0.0,0.0005000000237487257,0.007400000002235174,-0.0

 0.07000000029802322,8.0,0.9998999834060669,0.003700000001117587,-0.00019999999494757503,0.0,0.004800000227987766,-0.003000000026077032,4.239200115203857,0.0,-0.061000000685453415,0.0,-0.0,0.0005000000237487257,0.007400000002235174,-0.0,

 0.08299999684095383,9.0,0.9998999834060669,0.003700000001117587,-0.0003000000142492354,0.0,0.0006000000284984708,-0.006000000052154064,4.485300064086914,0.0,-0.061000000685453415,0.0,-0.0,0.0006000000284984708,0.007300000172108412,-0

 0.08500000089406967,10.0,0.9998999834060669,0.003700000001117587,-0.0003000000142492354,0.0,0.0006000000284984708,-0.006000000052154064,4.485300064086914,0.0,-0.061000000685453415,0.0,-0.0,0.0006000000284984708,0.007300000172108412,-0

 0.10199999809265137,11.0,0.9998999834060669,0.003599999938160181,-0.00039999998989515007,0.0,-0.0006000000284984708,-0.004800000227987766,4.633200168609619,-0.061000000685453415,-0.061000000685453415,0.0,-0.0,0.000699999975040555,0.00

 0.10999999940395355,12.0,0.9998999834060669,0.003599999938160181,-0.00039999998989515007,0.0,0.0,-0.00419999985024333,4.732600212097168,-0.061000000685453415,-0.061000000685453415,0.0,-0.0,0.0007999999797903001,0.007199999876320362,

 0.13199999928474426,14.0,0.9998999834060669,0.0035000001080334187,-0.0005000000237487257,0.0,0.003000000026077032,-0.003000000026077032,4.7941999435424805,0.0,-0.061000000685453415,0.0,-0.0,0.0010000000474974513,0.0071000000461936,-0

03953552,25.0,0.9998999834060669,0.0032999999821186066,-0.0007999999797903001,0.0,-0.007199999876320362,-0.00419999985024333,4.896599769592285,-0.061000000685453415,-0.061000000685453415,0.0,-0.0,0.0017000000225380063,0.0065

 Time,Count,Quat W,Quat X,Quat Y,Quat Z,Accel X (g),Accel Y (g),Accel Z (g),Gyro X (dps),Gyro Y (dps),Gyro Z (dps),Yaw,Pitch,Roll,X,Y,Z,Grav X,Grav Y,Grav Z,Temp

 0.05400000140070915,6.0,0.9998999834060669,0.003800000064074993,-0.00019999999494757503,-9.999999747378752e-05,0.002400000113993883,-0.0006000000284984708,3.856600046157837,-0.061000000685453415,-0.061000000685453415,0.0,9.9999997473

 0.06599999964237213,7.0,0.9998999834060669,0.003700000001117587,-0.00019999999494757503,0.0,0.004800000227987766,-0.003000000026077032,4.239200115203857,0.0,-0.061000000685453415,0.0,-0.0,0.0005000000237487257,0.007400000002235174,-0.0

 0.07000000029802322,8.0,0.9998999834060669,0.003700000001117587,-0.00019999999494757503,0.0,0.004800000227987766,-0.003000000026077032,4.239200115203857,0.0,-0.061000000685453415,0.0,-0.0,0.0005000000237487257,0.007400000002235174,-0.0,

 0.08299999684095383,9.0,0.9998999834060669,0.003700000001117587,-0.0003000000142492354,0.0,0.0006000000284984708,-0.006000000052154064,4.485300064086914,0.0,-0.061000000685453415,0.0,-0.0,0.0006000000284984708,0.007300000172108412,-0

 0.08500000089406967,10.0,0.9998999834060669,0.003700000001117587,-0.0003000000142492354,0.0,0.0006000000284984708,-0.006000000052154064,4.485300064086914,0.0,-0.061000000685453415,0.0,-0.0,0.0006000000284984708,0.007300000172108412,-0

 0.10199999809265137,11.0,0.9998999834060669,0.003599999938160181,-0.00039999998989515007,0.0,-0.0006000000284984708,-0.004800000227987766,4.633200168609619,-0.061000000685453415,-0.061000000685453415,0.0,-0.0,0.000699999975040555,0.00

 0.10999999940395355,12.0,0.9998999834060669,0.003599999938160181,-0.00039999998989515007,0.0,0.0,-0.00419999985024333,4.732600212097168,-0.061000000685453415,-0.061000000685453415,0.0,-0.0,0.0007999999797903001,0.007199999876320362,

 0.13199999928474426,14.0,0.9998999834060669,0.0035000001080334187,-0.0005000000237487257,0.0,0.003000000026077032,-0.003000000026077032,4.7941999435424805,0.0,-0.061000000685453415,0.0,-0.0,0.0010000000474974513,0.0071000000461936,-0

 0.14000000059604645,15.0,0.9998999834060669,0.0035000001080334187,-0.0006000000284984708,0.0,-0.0006000000284984708,-0.003000000026077032,4.829599857330322,-0.061000000685453415,-0.061000000685453415,0.0,-0.0,0.0012000000569969416,0.

 0.14399999380111694,16.0,0.9998999834060669,0.0035000001080334187,-0.0006000000284984708,0.0,-0.0006000000284984708,-0.003000000026077032,4.829599857330322,-0.061000000685453415,-0.061000000685453415,0.0,-0.0,0.0012000000569969416,0.00

 0.15600000321865082,17.0,0.9998999834060669,0.0035000001080334187,-0.0006000000284984708,0.0,-0.0006000000284984708,-0.003000000026077032,4.829599857330322,-0.061000000685453415,-0.061000000685453415,0.0,-0.0,0.0012000000569969416,0.00

 0.164000004529953,18.0,0.9998999834060669,0.0034000000450760126,-0.0006000000284984708,0.0,0.0,-0.006000000052154064,4.85830020904541,-0.061000000685453415,-0.061000000685453415,0.0,-0.0,0.0012000000569969416,0.006800000090152025,-0

 0.17299999296665192,19.0,0.9998999834060669,0.0034000000450760126,-0.000699999975040555,0.0,-0.003000000026077032,-0.005400000140070915,4.869699954986572,-0.061000000685453415,-0.061000000685453415,0.0,-0.0,0.0013000000035390258,0.00

 0.17499999701976776,20.0,0.9998999834060669,0.0034000000450760126,-0.000699999975040555,0.0,-0.003000000026077032,-0.005400000140070915,4.869699954986572,-0.061000000685453415,-0.061000000685453415,0.0,-0.0,0.0013000000035390258,0.006

 0.18799999356269836,21.0,0.9998999834060669,0.0034000000450760126,-0.000699999975040555,0.0,-0.00419999985024333,-0.005400000140070915,4.879799842834473,0.0,-0.061000000685453415,-0.061000000685453415,-0.0,0.001500000013038516,0.006699

 0.19200000166893005,22.0,0.9998999834060669,0.0034000000450760126,-0.000699999975040555,0.0,-0.00419999985024333,-0.005400000140070915,4.879799842834473,0.0,-0.061000000685453415,-0.061000000685453415,-0.0,0.001500000013038516,0.0066999

 0.21199999749660492,23.0,0.9998999834060669,0.0032999999821186066,-0.0007999999797903001,0.0,-0.005400000140070915,-0.006000000052154064,4.889999866485596,0.0,-0.061000000685453415,0.0,-0.0,0.0015999999595806003,0.006599999964237213,

 0.22100000083446503,24.0,0.9998999834060669,0.0032999999821186066,-0.0007999999797903001,0.0,-0.007199999876320362,-0.00419999985024333,4.896599769592285,-0.061000000685453415,-0.061000000685453415,0.0,-0.0,0.0017000000225380063,0.00

 0.22499999403953552,25.0,0.9998999834060669,0.0032999999821186066,-0.0007999999797903001,0.0,-0.007199999876320362,-0.00419999985024333,4.896599769592285,-0.061000000685453415,-0.061000000685453415,0.0,-0.0,0.0017000000225380063,0.0065

 Time,Count,Quat W,Quat X,Quat Y,Quat Z,Accel X (g),Accel Y (g),Accel Z (g),Gyro X (dps),Gyro Y (dps),Gyro Z (dps),Yaw,Pitch,Roll,X,Y,Z,Grav X,Grav Y,Grav Z,Temp

 0.05400000140070915,6.0,0.9998999834060669,0.003800000064074993,-0.00019999999494757503,-9.999999747378752e-05,0.002400000113993883,-0.0006000000284984708,3.856600046157837,-0.061000000685453415,-0.061000000685453415,0.0,9.9999997473

 0.06599999964237213,7.0,0.9998999834060669,0.003700000001117587,-0.00019999999494757503,0.0,0.004800000227987766,-0.003000000026077032,4.239200115203857,0.0,-0.061000000685453415,0.0,-0.0,0.0005000000237487257,0.007400000002235174,-0.0

 0.07000000029802322,8.0,0.9998999834060669,0.003700000001117587,-0.00019999999494757503,0.0,0.004800000227987766,-0.003000000026077032,4.239200115203857,0.0,-0.061000000685453415,0.0,-0.0,0.0005000000237487257,0.007400000002235174,-0.0,

 0.08299999684095383,9.0,0.9998999834060669,0.003700000001117587,-0.0003000000142492354,0.0,0.0006000000284984708,-0.006000000052154064,4.485300064086914,0.0,-0.061000000685453415,0.0,-0.0,0.0006000000284984708,0.007300000172108412,-0

 0.08500000089406967,10.0,0.9998999834060669,0.003700000001117587,-0.0003000000142492354,0.0,0.0006000000284984708,-0.006000000052154064,4.485300064086914,0.0,-0.061000000685453415,0.0,-0.0,0.0006000000284984708,0.007300000172108412,-0

 0.10199999809265137,11.0,0.9998999834060669,0.003599999938160181,-0.00039999998989515007,0.0,-0.0006000000284984708,-0.004800000227987766,4.633200168609619,-0.061000000685453415,-0.061000000685453415,0.0,-0.0,0.000699999975040555,0.00

 0.10999999940395355,12.0,0.9998999834060669,0.003599999938160181,-0.00039999998989515007,0.0,0.0,-0.00419999985024333,4.732600212097168,-0.061000000685453415,-0.061000000685453415,0.0,-0.0,0.0007999999797903001,0.007199999876320362,

 0.13199999928474426,14.0,0.9998999834060669,0.0035000001080334187,-0.0005000000237487257,0.0,0.003000000026077032,-0.003000000026077032,4.7941999435424805,0.0,-0.061000000685453415,0.0,-0.0,0.0010000000474974513,0.0071000000461936,-0

 0.14000000059604645,15.0,0.9998999834060669,0.0035000001080334187,-0.0006000000284984708,0.0,-0.0006000000284984708,-0.003000000026077032,4.829599857330322,-0.061000000685453415,-0.061000000685453415,0.0,-0.0,0.0012000000569969416,0.

 0.14399999380111694,16.0,0.9998999834060669,0.0035000001080334187,-0.0006000000284984708,0.0,-0.0006000000284984708,-0.003000000026077032,4.829599857330322,-0.061000000685453415,-0.061000000685453415,0.0,-0.0,0.0012000000569969416,0.00

 0.15600000321865082,17.0,0.9998999834060669,0.0035000001080334187,-0.0006000000284984708,0.0,-0.0006000000284984708,-0.003000000026077032,4.829599857330322,-0.061000000685453415,-0.061000000685453415,0.0,-0.0,0.0012000000569969416,0.00

 0.164000004529953,18.0,0.9998999834060669,0.0034000000450760126,-0.0006000000284984708,0.0,0.0,-0.006000000052154064,4.85830020904541,-0.061000000685453415,-0.061000000685453415,0.0,-0.0,0.0012000000569969416,0.006800000090152025,-0

 0.17299999296665192,19.0,0.9998999834060669,0.0034000000450760126,-0.000699999975040555,0.0,-0.003000000026077032,-0.005400000140070915,4.869699954986572,-0.061000000685453415,-0.061000000685453415,0.0,-0.0,0.0013000000035390258,0.00

 0.17499999701976776,20.0,0.9998999834060669,0.0034000000450760126,-0.000699999975040555,0.0,-0.003000000026077032,-0.005400000140070915,4.869699954986572,-0.061000000685453415,-0.061000000685453415,0.0,-0.0,0.0013000000035390258,0.006

 0.18799999356269836,21.0,0.9998999834060669,0.0034000000450760126,-0.000699999975040555,0.0,-0.00419999985024333,-0.005400000140070915,4.879799842834473,0.0,-0.061000000685453415,-0.061000000685453415,-0.0,0.001500000013038516,0.006699

 0.19200000166893005,22.0,0.9998999834060669,0.0034000000450760126,-0.000699999975040555,0.0,-0.00419999985024333,-0.005400000140070915,4.879799842834473,0.0,-0.061000000685453415,-0.061000000685453415,-0.0,0.001500000013038516,0.0066999

 0.21199999749660492,23.0,0.9998999834060669,0.0032999999821186066,-0.0007999999797903001,0.0,-0.005400000140070915,-0.006000000052154064,4.889999866485596,0.0,-0.061000000685453415,0.0,-0.0,0.0015999999595806003,0.006599999964237213,

 0.22100000083446503,24.0,0.9998999834060669,0.0032999999821186066,-0.0007999999797903001,0.0,-0.007199999876320362,-0.00419999985024333,4.896599769592285,-0.061000000685453415,-0.061000000685453415,0.0,-0.0,0.0017000000225380063,0.00

 0.22499999403953552,25.0,0.9998999834060669,0.0032999999821186066,-0.0007999999797903001,0.0,-0.007199999876320362,-0.00419999985024333,4.896599769592285,-0.061000000685453415,-0.061000000685453415,0.0,-0.0,0.0017000000225380063,0.0065

 Time,Count,Quat W,Quat X,Quat Y,Quat Z,Accel X (g),Accel Y (g),Accel Z (g),Gyro X (dps),Gyro Y (dps),Gyro Z (dps),Yaw,Pitch,Roll,X,Y,Z,Grav X,Grav Y,Grav Z,Temp

 0.05400000140070915,6.0,0.9998999834060669,0.003800000064074993,-0.00019999999494757503,-9.999999747378752e-05,0.002400000113993883,-0.0006000000284984708,3.856600046157837,-0.061000000685453415,-0.061000000685453415,0.0,9.9999997473

 0.06599999964237213,7.0,0.9998999834060669,0.003700000001117587,-0.00019999999494757503,0.0,0.004800000227987766,-0.003000000026077032,4.239200115203857,0.0,-0.061000000685453415,0.0,-0.0,0.0005000000237487257,0.007400000002235174,-0.0

 0.07000000029802322,8.0,0.9998999834060669,0.003700000001117587,-0.00019999999494757503,0.0,0.004800000227987766,-0.003000000026077032,4.239200115203857,0.0,-0.061000000685453415,0.0,-0.0,0.0005000000237487257,0.007400000002235174,-0.0,

03953552,25.0,0.9998999834060669,0.0032999999821186066,-0.0007999999797903001,0.0,-0.007199999876320362,-0.00419999985024333,4.896599769592285,-0.061000000685453415,-0.061000000685453415,0.0,-0.0,0.0017000000225380063,0.0065

 Time,Count,Quat W,Quat X,Quat Y,Quat Z,Accel X (g),Accel Y (g),Accel Z (g),Gyro X (dps),Gyro Y (dps),Gyro Z (dps),Yaw,Pitch,Roll,X,Y,Z,Grav X,Grav Y,Grav Z,Temp

 0.05400000140070915,6.0,0.9998999834060669,0.003800000064074993,-0.00019999999494757503,-9.999999747378752e-05,0.002400000113993883,-0.0006000000284984708,3.856600046157837,-0.061000000685453415,-0.061000000685453415,0.0,9.9999997473

 0.06599999964237213,7.0,0.9998999834060669,0.003700000001117587,-0.00019999999494757503,0.0,0.004800000227987766,-0.003000000026077032,4.239200115203857,0.0,-0.061000000685453415,0.0,-0.0,0.0005000000237487257,0.007400000002235174,-0.0

 0.07000000029802322,8.0,0.9998999834060669,0.003700000001117587,-0.00019999999494757503,0.0,0.004800000227987766,-0.003000000026077032,4.239200115203857,0.0,-0.061000000685453415,0.0,-0.0,0.0005000000237487257,0.007400000002235174,-0.0,

 0.08299999684095383,9.0,0.9998999834060669,0.003700000001117587,-0.0003000000142492354,0.0,0.0006000000284984708,-0.006000000052154064,4.485300064086914,0.0,-0.061000000685453415,0.0,-0.0,0.0006000000284984708,0.007300000172108412,-0

 0.08500000089406967,10.0,0.9998999834060669,0.003700000001117587,-0.0003000000142492354,0.0,0.0006000000284984708,-0.006000000052154064,4.485300064086914,0.0,-0.061000000685453415,0.0,-0.0,0.0006000000284984708,0.007300000172108412,-0

 0.10199999809265137,11.0,0.9998999834060669,0.003599999938160181,-0.00039999998989515007,0.0,-0.0006000000284984708,-0.004800000227987766,4.633200168609619,-0.061000000685453415,-0.061000000685453415,0.0,-0.0,0.000699999975040555,0.00

 0.10999999940395355,12.0,0.9998999834060669,0.003599999938160181,-0.00039999998989515007,0.0,0.0,-0.00419999985024333,4.732600212097168,-0.061000000685453415,-0.061000000685453415,0.0,-0.0,0.0007999999797903001,0.007199999876320362,

 0.13199999928474426,14.0,0.9998999834060669,0.0035000001080334187,-0.0005000000237487257,0.0,0.003000000026077032,-0.003000000026077032,4.7941999435424805,0.0,-0.061000000685453415,0.0,-0.0,0.0010000000474974513,0.0071000000461936,-0

 0.14000000059604645,15.0,0.9998999834060669,0.0035000001080334187,-0.0006000000284984708,0.0,-0.0006000000284984708,-0.003000000026077032,4.829599857330322,-0.061000000685453415,-0.061000000685453415,0.0,-0.0,0.0012000000569969416,0.

 0.14399999380111694,16.0,0.9998999834060669,0.0035000001080334187,-0.0006000000284984708,0.0,-0.0006000000284984708,-0.003000000026077032,4.829599857330322,-0.061000000685453415,-0.061000000685453415,0.0,-0.0,0.0012000000569969416,0.00

 0.15600000321865082,17.0,0.9998999834060669,0.0035000001080334187,-0.0006000000284984708,0.0,-0.0006000000284984708,-0.003000000026077032,4.829599857330322,-0.061000000685453415,-0.061000000685453415,0.0,-0.0,0.0012000000569969416,0.00

 0.164000004529953,18.0,0.9998999834060669,0.0034000000450760126,-0.0006000000284984708,0.0,0.0,-0.006000000052154064,4.85830020904541,-0.061000000685453415,-0.061000000685453415,0.0,-0.0,0.0012000000569969416,0.006800000090152025,-0

 0.17299999296665192,19.0,0.9998999834060669,0.0034000000450760126,-0.000699999975040555,0.0,-0.003000000026077032,-0.005400000140070915,4.869699954986572,-0.061000000685453415,-0.061000000685453415,0.0,-0.0,0.0013000000035390258,0.00

 0.17499999701976776,20.0,0.9998999834060669,0.0034000000450760126,-0.000699999975040555,0.0,-0.003000000026077032,-0.005400000140070915,4.869699954986572,-0.061000000685453415,-0.061000000685453415,0.0,-0.0,0.0013000000035390258,0.006

 0.18799999356269836,21.0,0.9998999834060669,0.0034000000450760126,-0.000699999975040555,0.0,-0.00419999985024333,-0.005400000140070915,4.879799842834473,0.0,-0.061000000685453415,-0.061000000685453415,-0.0,0.001500000013038516,0.006699

 0.19200000166893005,22.0,0.9998999834060669,0.0034000000450760126,-0.000699999975040555,0.0,-0.00419999985024333,-0.005400000140070915,4.879799842834473,0.0,-0.061000000685453415,-0.061000000685453415,-0.0,0.001500000013038516,0.0066999

 0.21199999749660492,23.0,0.9998999834060669,0.0032999999821186066,-0.0007999999797903001,0.0,-0.005400000140070915,-0.006000000052154064,4.889999866485596,0.0,-0.061000000685453415,0.0,-0.0,0.0015999999595806003,0.006599999964237213,

 0.22100000083446503,24.0,0.9998999834060669,0.0032999999821186066,-0.0007999999797903001,0.0,-0.007199999876320362,-0.00419999985024333,4.896599769592285,-0.061000000685453415,-0.061000000685453415,0.0,-0.0,0.0017000000225380063,0.00

 0.22499999403953552,25.0,0.9998999834060669,0.0032999999821186066,-0.0007999999797903001,0.0,-0.007199999876320362,-0.00419999985024333,4.896599769592285,-0.061000000685453415,-0.061000000685453415,0.0,-0.0,0.0017000000225380063,0.0065

 Time,Count,Quat W,Quat X,Quat Y,Quat Z,Accel X (g),Accel Y (g),Accel Z (g),Gyro X (dps),Gyro Y (dps),Gyro Z (dps),Yaw,Pitch,Roll,X,Y,Z,Grav X,Grav Y,Grav Z,Temp

 0.05400000140070915,6.0,0.9998999834060669,0.003800000064074993,-0.00019999999494757503,-9.999999747378752e-05,0.002400000113993883,-0.0006000000284984708,3.856600046157837,-0.061000000685453415,-0.061000000685453415,0.0,9.9999997473

 0.06599999964237213,7.0,0.9998999834060669,0.003700000001117587,-0.00019999999494757503,0.0,0.004800000227987766,-0.003000000026077032,4.239200115203857,0.0,-0.061000000685453415,0.0,-0.0,0.0005000000237487257,0.007400000002235174,-0.0

 0.07000000029802322,8.0,0.9998999834060669,0.003700000001117587,-0.00019999999494757503,0.0,0.004800000227987766,-0.003000000026077032,4.239200115203857,0.0,-0.061000000685453415,0.0,-0.0,0.0005000000237487257,0.007400000002235174,-0.0,

 0.08299999684095383,9.0,0.9998999834060669,0.003700000001117587,-0.0003000000142492354,0.0,0.0006000000284984708,-0.006000000052154064,4.485300064086914,0.0,-0.061000000685453415,0.0,-0.0,0.0006000000284984708,0.007300000172108412,-0

 0.08500000089406967,10.0,0.9998999834060669,0.003700000001117587,-0.0003000000142492354,0.0,0.0006000000284984708,-0.006000000052154064,4.485300064086914,0.0,-0.061000000685453415,0.0,-0.0,0.0006000000284984708,0.007300000172108412,-0

 0.10199999809265137,11.0,0.9998999834060669,0.003599999938160181,-0.00039999998989515007,0.0,-0.0006000000284984708,-0.004800000227987766,4.633200168609619,-0.061000000685453415,-0.061000000685453415,0.0,-0.0,0.000699999975040555,0.00

 0.10999999940395355,12.0,0.9998999834060669,0.003599999938160181,-0.00039999998989515007,0.0,0.0,-0.00419999985024333,4.732600212097168,-0.061000000685453415,-0.061000000685453415,0.0,-0.0,0.0007999999797903001,0.007199999876320362,

 0.13199999928474426,14.0,0.9998999834060669,0.0035000001080334187,-0.0005000000237487257,0.0,0.003000000026077032,-0.003000000026077032,4.7941999435424805,0.0,-0.061000000685453415,0.0,-0.0,0.0010000000474974513,0.0071000000461936,-0

 0.14000000059604645,15.0,0.9998999834060669,0.0035000001080334187,-0.0006000000284984708,0.0,-0.0006000000284984708,-0.003000000026077032,4.829599857330322,-0.061000000685453415,-0.061000000685453415,0.0,-0.0,0.0012000000569969416,0.

 0.14399999380111694,16.0,0.9998999834060669,0.0035000001080334187,-0.0006000000284984708,0.0,-0.0006000000284984708,-0.003000000026077032,4.829599857330322,-0.061000000685453415,-0.061000000685453415,0.0,-0.0,0.0012000000569969416,0.00

 0.15600000321865082,17.0,0.9998999834060669,0.0035000001080334187,-0.0006000000284984708,0.0,-0.0006000000284984708,-0.003000000026077032,4.829599857330322,-0.061000000685453415,-0.061000000685453415,0.0,-0.0,0.0012000000569969416,0.00

 0.164000004529953,18.0,0.9998999834060669,0.0034000000450760126,-0.0006000000284984708,0.0,0.0,-0.006000000052154064,4.85830020904541,-0.061000000685453415,-0.061000000685453415,0.0,-0.0,0.0012000000569969416,0.006800000090152025,-0

 0.17299999296665192,19.0,0.9998999834060669,0.0034000000450760126,-0.000699999975040555,0.0,-0.003000000026077032,-0.005400000140070915,4.869699954986572,-0.061000000685453415,-0.061000000685453415,0.0,-0.0,0.0013000000035390258,0.00

 0.17499999701976776,20.0,0.9998999834060669,0.0034000000450760126,-0.000699999975040555,0.0,-0.003000000026077032,-0.005400000140070915,4.869699954986572,-0.061000000685453415,-0.061000000685453415,0.0,-0.0,0.0013000000035390258,0.006

 0.18799999356269836,21.0,0.9998999834060669,0.0034000000450760126,-0.000699999975040555,0.0,-0.00419999985024333,-0.005400000140070915,4.879799842834473,0.0,-0.061000000685453415,-0.061000000685453415,-0.0,0.001500000013038516,0.006699

 0.19200000166893005,22.0,0.9998999834060669,0.0034000000450760126,-0.000699999975040555,0.0,-0.00419999985024333,-0.005400000140070915,4.879799842834473,0.0,-0.061000000685453415,-0.061000000685453415,-0.0,0.001500000013038516,0.0066999

 0.21199999749660492,23.0,0.9998999834060669,0.0032999999821186066,-0.0007999999797903001,0.0,-0.005400000140070915,-0.006000000052154064,4.889999866485596,0.0,-0.061000000685453415,0.0,-0.0,0.0015999999595806003,0.006599999964237213,

 0.22100000083446503,24.0,0.9998999834060669,0.0032999999821186066,-0.0007999999797903001,0.0,-0.007199999876320362,-0.00419999985024333,4.896599769592285,-0.061000000685453415,-0.061000000685453415,0.0,-0.0,0.0017000000225380063,0.00

 0.22499999403953552,25.0,0.9998999834060669,0.0032999999821186066,-0.0007999999797903001,0.0,-0.007199999876320362,-0.00419999985024333,4.896599769592285,-0.061000000685453415,-0.061000000685453415,0.0,-0.0,0.0017000000225380063,0.0065

 Time,Count,Quat W,Quat X,Quat Y,Quat Z,Accel X (g),Accel Y (g),Accel Z (g),Gyro X (dps),Gyro Y (dps),Gyro Z (dps),Yaw,Pitch,Roll,X,Y,Z,Grav X,Grav Y,Grav Z,Temp

 0.05400000140070915,6.0,0.9998999834060669,0.003800000064074993,-0.00019999999494757503,-9.999999747378752e-05,0.002400000113993883,-0.0006000000284984708,3.856600046157837,-0.061000000685453415,-0.061000000685453415,0.0,9.9999997473

 0.06599999964237213,7.0,0.9998999834060669,0.003700000001117587,-0.00019999999494757503,0.0,0.004800000227987766,-0.003000000026077032,4.239200115203857,0.0,-0.061000000685453415,0.0,-0.0,0.0005000000237487257,0.007400000002235174,-0.0

 0.07000000029802322,8.0,0.9998999834060669,0.003700000001117587,-0.00019999999494757503,0.0,0.004800000227987766,-0.003000000026077032,4.239200115203857,0.0,-0.061000000685453415,0.0,-0.0,0.0005000000237487257,0.007400000002235174,-0.0,

 0.08299999684095383,9.0,0.9998999834060669,0.003700000001117587,-0.0003000000142492354,0.0,0.0006000000284984708,-0.006000000052154064,4.485300064086914,0.0,-0.061000000685453415,0.0,-0.0,0.0006000000284984708,0.007300000172108412,-0

 0.08500000089406967,10.0,0.9998999834060669,0.003700000001117587,-0.0003000000142492354,0.0,0.0006000000284984708,-0.006000000052154064,4.485300064086914,0.0,-0.061000000685453415,0.0,-0.0,0.0006000000284984708,0.007300000172108412,-0

 0.10199999809265137,11.0,0.9998999834060669,0.003599999938160181,-0.00039999998989515007,0.0,-0.0006000000284984708,-0.004800000227987766,4.633200168609619,-0.061000000685453415,-0.061000000685453415,0.0,-0.0,0.000699999975040555,0.00

 0.10999999940395355,12.0,0.9998999834060669,0.003599999938160181,-0.00039999998989515007,0.0,0.0,-0.00419999985024333,4.732600212097168,-0.061000000685453415,-0.061000000685453415,0.0,-0.0,0.0007999999797903001,0.007199999876320362,

 0.13199999928474426,14.0,0.9998999834060669,0.0035000001080334187,-0.0005000000237487257,0.0,0.003000000026077032,-0.003000000026077032,4.7941999435424805,0.0,-0.061000000685453415,0.0,-0.0,0.0010000000474974513,0.0071000000461936,-0

 0.14000000059604645,15.0,0.9998999834060669,0.0035000001080334187,-0.0006000000284984708,0.0,-0.0006000000284984708,-0.003000000026077032,4.829599857330322,-0.061000000685453415,-0.061000000685453415,0.0,-0.0,0.0012000000569969416,0.

 0.14399999380111694,16.0,0.9998999834060669,0.0035000001080334187,-0.0006000000284984708,0.0,-0.0006000000284984708,-0.003000000026077032,4.829599857330322,-0.061000000685453415,-0.061000000685453415,0.0,-0.0,0.0012000000569969416,0.00

 0.15600000321865082,17.0,0.9998999834060669,0.0035000001080334187,-0.0006000000284984708,0.0,-0.0006000000284984708,-0.003000000026077032,4.829599857330322,-0.061000000685453415,-0.061000000685453415,0.0,-0.0,0.0012000000569969416,0.00

 0.164000004529953,18.0,0.9998999834060669,0.0034000000450760126,-0.0006000000284984708,0.0,0.0,-0.006000000052154064,4.85830020904541,-0.061000000685453415,-0.061000000685453415,0.0,-0.0,0.0012000000569969416,0.006800000090152025,-0

 0.17299999296665192,19.0,0.9998999834060669,0.0034000000450760126,-0.000699999975040555,0.0,-0.003000000026077032,-0.005400000140070915,4.869699954986572,-0.061000000685453415,-0.061000000685453415,0.0,-0.0,0.0013000000035390258,0.00

 0.17499999701976776,20.0,0.9998999834060669,0.0034000000450760126,-0.000699999975040555,0.0,-0.003000000026077032,-0.005400000140070915,4.869699954986572,-0.061000000685453415,-0.061000000685453415,0.0,-0.0,0.0013000000035390258,0.006

 0.18799999356269836,21.0,0.9998999834060669,0.0034000000450760126,-0.000699999975040555,0.0,-0.00419999985024333,-0.005400000140070915,4.879799842834473,0.0,-0.061000000685453415,-0.061000000685453415,-0.0,0.001500000013038516,0.006699

 0.19200000166893005,22.0,0.9998999834060669,0.0034000000450760126,-0.000699999975040555,0.0,-0.00419999985024333,-0.005400000140070915,4.879799842834473,0.0,-0.061000000685453415,-0.061000000685453415,-0.0,0.001500000013038516,0.0066999

 0.21199999749660492,23.0,0.9998999834060669,0.0032999999821186066,-0.0007999999797903001,0.0,-0.005400000140070915,-0.006000000052154064,4.889999866485596,0.0,-0.061000000685453415,0.0,-0.0,0.0015999999595806003,0.006599999964237213,

 0.22100000083446503,24.0,0.9998999834060669,0.0032999999821186066,-0.0007999999797903001,0.0,-0.007199999876320362,-0.00419999985024333,4.896599769592285,-0.061000000685453415,-0.061000000685453415,0.0,-0.0,0.0017000000225380063,0.00

